Sub,Date,Press,Trial,ItemPressed,CorrectItem,Accuracy,Hint,HintNominal,Known,TrialAcc,HintsPerTrial,HintRT,RT,Time,List,Items,Day,HintAvailible,HintPause,NumLists,PortPressed,CorrectPort,PicturePressed,Chamber,TrialsPerSession,TO,ITI,Other Day,Session,Order pressed,Response typeS1,2017.08.10,9,3,A,A,1,0,No Hint,Unknown,bl,bl,bl,3.066667,26.83333,4006,4,1,FALSE,0,6,5,5,4006.01,,40,3,2,1,Testing,ACDB,Center EmbeddedS1,2017.08.10,10,3,C,B,1,0,No Hint,Unknown,bl,bl,bl,0.45,27.28333,4006,4,1,FALSE,0,6,1,0,4006.03,,40,3,2,1,Testing,,S1,2017.08.10,11,3,D,C,1,0,No Hint,Unknown,bl,bl,bl,0.4,27.68333,4006,4,1,FALSE,0,6,2,1,4006.04,,40,3,2,1,Testing,,S1,2017.08.10,12,3,B,D,1,0,No Hint,Unknown,1,0,bl,0.4,28.08333,4006,4,1,FALSE,0,6,0,2,4006.02,,40,3,2,1,Testing,,S1,2017.08.10,21,6,A,A,1,0,No Hint,Unknown,bl,bl,bl,1.633333,48.75,4006,4,1,FALSE,0,6,1,1,4006.01,,40,3,2,1,Testing,ACDB,Center EmbeddedS1,2017.08.10,22,6,C,B,1,0,No Hint,Unknown,bl,bl,bl,0.4166667,49.16667,4006,4,1,FALSE,0,6,0,3,4006.03,,40,3,2,1,Testing,,S1,2017.08.10,23,6,D,C,1,0,No Hint,Unknown,bl,bl,bl,0.7166667,49.88333,4006,4,1,FALSE,0,6,2,0,4006.04,,40,3,2,1,Testing,,S1,2017.08.10,24,6,B,D,1,0,No Hint,Unknown,1,0,bl,0.5,50.38333,4006,4,1,FALSE,0,6,3,2,4006.02,,40,3,2,1,Testing,,S1,2017.08.10,25,7,A,A,1,0,No Hint,Unknown,bl,bl,bl,1.95,56.48333,4006,4,1,FALSE,0,6,4,4,4006.01,,40,3,2,1,Testing,ACDB,Center EmbeddedS1,2017.08.10,26,7,C,B,1,0,No Hint,Unknown,bl,bl,bl,0.3833333,56.86667,4006,4,1,FALSE,0,6,5,2,4006.03,,40,3,2,1,Testing,,S1,2017.08.10,27,7,D,C,1,0,No Hint,Unknown,bl,bl,bl,2.45,59.31667,4006,4,1,FALSE,0,6,0,5,4006.04,,40,3,2,1,Testing,,S1,2017.08.10,28,7,B,D,1,0,No Hint,Unknown,1,0,bl,0.35,59.66667,4006,4,1,FALSE,0,6,2,0,4006.02,,40,3,2,1,Testing,,S1,2017.08.10,41,11,A,A,1,0,No Hint,Unknown,bl,bl,bl,1.816667,86.5,4006,4,1,FALSE,0,6,3,3,4006.01,,40,3,2,1,Testing,ACDB,Center EmbeddedS1,2017.08.10,42,11,C,B,1,0,No Hint,Unknown,bl,bl,bl,0.8833333,87.38333,4006,4,1,FALSE,0,6,2,5,4006.03,,40,3,2,1,Testing,,S1,2017.08.10,43,11,D,C,1,0,No Hint,Unknown,bl,bl,bl,1,88.38333,4006,4,1,FALSE,0,6,1,2,4006.04,,40,3,2,1,Testing,,S1,2017.08.10,44,11,B,D,1,0,No Hint,Unknown,1,0,bl,0.8333333,89.21667,4006,4,1,FALSE,0,6,5,1,4006.02,,40,3,2,1,Testing,,S1,2017.08.10,45,12,A,A,1,0,No Hint,Unknown,bl,bl,bl,1.783333,94.73333,4006,4,1,FALSE,0,6,4,4,4006.01,,40,3,2,1,Testing,ACDB,Center EmbeddedS1,2017.08.10,46,12,C,B,1,0,No Hint,Unknown,bl,bl,bl,0.5,95.23333,4006,4,1,FALSE,0,6,3,2,4006.03,,40,3,2,1,Testing,,S1,2017.08.10,47,12,D,C,1,0,No Hint,Unknown,bl,bl,bl,1.3,96.53333,4006,4,1,FALSE,0,6,1,3,4006.04,,40,3,2,1,Testing,,S1,2017.08.10,48,12,B,D,1,0,No Hint,Unknown,1,0,bl,0.35,96.88333,4006,4,1,FALSE,0,6,2,1,4006.02,,40,3,2,1,Testing,,S1,2017.08.10,53,14,A,A,1,0,No Hint,Unknown,bl,bl,bl,1.983333,109.4167,4006,4,1,FALSE,0,6,2,2,4006.01,,40,3,2,1,Testing,ACDB,Center EmbeddedS1,2017.08.10,54,14,C,B,1,0,No Hint,Unknown,bl,bl,bl,0.5333333,109.95,4006,4,1,FALSE,0,6,4,3,4006.03,,40,3,2,1,Testing,,S1,2017.08.10,55,14,D,C,1,0,No Hint,Unknown,bl,bl,bl,0.3166667,110.2667,4006,4,1,FALSE,0,6,5,4,4006.04,,40,3,2,1,Testing,,S1,2017.08.10,56,14,B,D,1,0,No Hint,Unknown,1,0,bl,0.4166667,110.6833,4006,4,1,FALSE,0,6,3,5,4006.02,,40,3,2,1,Testing,,S1,2017.08.10,57,15,A,A,1,0,No Hint,Unknown,bl,bl,bl,1.566667,115.9,4006,4,1,FALSE,0,6,2,2,4006.01,,40,3,2,1,Testing,ACDB,Center EmbeddedS1,2017.08.10,58,15,C,B,1,0,No Hint,Unknown,bl,bl,bl,0.3166667,116.2167,4006,4,1,FALSE,0,6,5,1,4006.03,,40,3,2,1,Testing,,S1,2017.08.10,59,15,D,C,1,0,No Hint,Unknown,bl,bl,bl,0.4166667,116.6333,4006,4,1,FALSE,0,6,3,5,4006.04,,40,3,2,1,Testing,,S1,2017.08.10,60,15,B,D,1,0,No Hint,Unknown,1,0,bl,1.033333,117.6667,4006,4,1,FALSE,0,6,1,3,4006.02,,40,3,2,1,Testing,,S1,2017.08.10,61,16,A,A,1,0,No Hint,Unknown,bl,bl,bl,1.65,123.35,4006,4,1,FALSE,0,6,4,4,4006.01,,40,3,2,1,Testing,ACDB,Center EmbeddedS1,2017.08.10,62,16,C,B,1,0,No Hint,Unknown,bl,bl,bl,0.5333333,123.8833,4006,4,1,FALSE,0,6,2,5,4006.03,,40,3,2,1,Testing,,S1,2017.08.10,63,16,D,C,1,0,No Hint,Unknown,bl,bl,bl,0.3333333,124.2167,4006,4,1,FALSE,0,6,1,2,4006.04,,40,3,2,1,Testing,,S1,2017.08.10,64,16,B,D,1,0,No Hint,Unknown,1,0,bl,0.35,124.5667,4006,4,1,FALSE,0,6,5,1,4006.02,,40,3,2,1,Testing,,S1,2017.08.10,65,17,A,A,1,0,No Hint,Unknown,bl,bl,bl,1.416667,130.7333,4006,4,1,FALSE,0,6,0,0,4006.01,,40,3,2,1,Testing,ACDB,Center EmbeddedS1,2017.08.10,66,17,C,B,1,0,No Hint,Unknown,bl,bl,bl,0.3,131.0333,4006,4,1,FALSE,0,6,3,2,4006.03,,40,3,2,1,Testing,,S1,2017.08.10,67,17,D,C,1,0,No Hint,Unknown,bl,bl,bl,0.3666667,131.4,4006,4,1,FALSE,0,6,1,3,4006.04,,40,3,2,1,Testing,,S1,2017.08.10,68,17,B,D,1,0,No Hint,Unknown,1,0,bl,0.3333333,131.7333,4006,4,1,FALSE,0,6,2,1,4006.02,,40,3,2,1,Testing,,S1,2017.08.10,69,18,A,A,1,0,No Hint,Unknown,bl,bl,bl,1.616667,137.3167,4006,4,1,FALSE,0,6,0,0,4006.01,,40,3,2,1,Testing,ACDB,Center EmbeddedS1,2017.08.10,70,18,C,B,1,0,No Hint,Unknown,bl,bl,bl,0.3833333,137.7,4006,4,1,FALSE,0,6,2,5,4006.03,,40,3,2,1,Testing,,S1,2017.08.10,71,18,D,C,1,0,No Hint,Unknown,bl,bl,bl,0.3833333,138.0833,4006,4,1,FALSE,0,6,3,2,4006.04,,40,3,2,1,Testing,,S1,2017.08.10,72,18,B,D,1,0,No Hint,Unknown,1,0,bl,0.4333333,138.5167,4006,4,1,FALSE,0,6,5,3,4006.02,,40,3,2,1,Testing,,S1,2017.08.10,73,19,A,A,1,0,No Hint,Unknown,bl,bl,bl,1.183333,143.3833,4006,4,1,FALSE,0,6,0,0,4006.01,,40,3,2,1,Testing,ACDB,Center EmbeddedS1,2017.08.10,74,19,C,B,1,0,No Hint,Unknown,bl,bl,bl,0.35,143.7333,4006,4,1,FALSE,0,6,1,3,4006.03,,40,3,2,1,Testing,,S1,2017.08.10,75,19,D,C,1,0,No Hint,Unknown,bl,bl,bl,0.35,144.0833,4006,4,1,FALSE,0,6,5,1,4006.04,,40,3,2,1,Testing,,S1,2017.08.10,76,19,B,D,1,0,No Hint,Unknown,1,0,bl,0.4,144.4833,4006,4,1,FALSE,0,6,3,5,4006.02,,40,3,2,1,Testing,,S1,2017.08.10,77,20,A,A,1,0,No Hint,Unknown,bl,bl,bl,1.033333,149.2,4006,4,1,FALSE,0,6,0,0,4006.01,,40,3,2,1,Testing,ACDB,Center EmbeddedS1,2017.08.10,78,20,C,B,1,0,No Hint,Unknown,bl,bl,bl,0.8666667,150.0667,4006,4,1,FALSE,0,6,4,2,4006.03,,40,3,2,1,Testing,,S1,2017.08.10,79,20,D,C,1,0,No Hint,Unknown,bl,bl,bl,0.4,150.4667,4006,4,1,FALSE,0,6,5,4,4006.04,,40,3,2,1,Testing,,S1,2017.08.10,80,20,B,D,1,0,No Hint,Unknown,1,0,bl,0.4,150.8667,4006,4,1,FALSE,0,6,2,5,4006.02,,40,3,2,1,Testing,,S1,2017.08.10,85,22,A,A,1,0,No Hint,Unknown,bl,bl,bl,1.316667,164.2333,4006,4,1,FALSE,0,6,1,1,4006.01,,40,3,2,1,Testing,ACDB,Center EmbeddedS1,2017.08.10,86,22,C,B,1,0,No Hint,Unknown,bl,bl,bl,0.3,164.5333,4006,4,1,FALSE,0,6,5,2,4006.03,,40,3,2,1,Testing,,S1,2017.08.10,87,22,D,C,1,0,No Hint,Unknown,bl,bl,bl,0.3333333,164.8667,4006,4,1,FALSE,0,6,3,5,4006.04,,40,3,2,1,Testing,,S1,2017.08.10,88,22,B,D,1,0,No Hint,Unknown,1,0,bl,0.45,165.3167,4006,4,1,FALSE,0,6,2,3,4006.02,,40,3,2,1,Testing,,S1,2017.08.10,97,25,A,A,1,0,No Hint,Unknown,bl,bl,bl,1.233333,184.8,4006,4,1,FALSE,0,6,0,0,4006.01,,40,3,2,1,Testing,ACDB,Center EmbeddedS1,2017.08.10,98,25,C,B,1,0,No Hint,Unknown,bl,bl,bl,0.3833333,185.1833,4006,4,1,FALSE,0,6,2,5,4006.03,,40,3,2,1,Testing,,S1,2017.08.10,99,25,D,C,1,0,No Hint,Unknown,bl,bl,bl,0.2833333,185.4667,4006,4,1,FALSE,0,6,1,2,4006.04,,40,3,2,1,Testing,,S1,2017.08.10,100,25,B,D,1,0,No Hint,Unknown,1,0,bl,0.95,186.4167,4006,4,1,FALSE,0,6,5,1,4006.02,,40,3,2,1,Testing,,S1,2017.08.10,113,29,A,A,1,0,No Hint,Unknown,bl,bl,bl,1.966667,210.7,4006,4,1,FALSE,0,6,4,4,4006.01,,40,3,2,1,Testing,ACDB,Center EmbeddedS1,2017.08.10,114,29,C,B,1,0,No Hint,Unknown,bl,bl,bl,0.3833333,211.0833,4006,4,1,FALSE,0,6,5,2,4006.03,,40,3,2,1,Testing,,S1,2017.08.10,115,29,D,C,1,0,No Hint,Unknown,bl,bl,bl,0.3333333,211.4167,4006,4,1,FALSE,0,6,1,5,4006.04,,40,3,2,1,Testing,,S1,2017.08.10,116,29,B,D,1,0,No Hint,Unknown,1,0,bl,0.2833333,211.7,4006,4,1,FALSE,0,6,2,1,4006.02,,40,3,2,1,Testing,,S1,2017.08.10,121,31,A,A,1,0,No Hint,Unknown,bl,bl,bl,1.966667,224.15,4006,4,1,FALSE,0,6,3,3,4006.01,,40,3,2,1,Testing,ACDB,Center EmbeddedS1,2017.08.10,122,31,C,B,1,0,No Hint,Unknown,bl,bl,bl,0.4,224.55,4006,4,1,FALSE,0,6,5,2,4006.03,,40,3,2,1,Testing,,S1,2017.08.10,123,31,D,C,1,0,No Hint,Unknown,bl,bl,bl,0.3833333,224.9333,4006,4,1,FALSE,0,6,1,5,4006.04,,40,3,2,1,Testing,,S1,2017.08.10,124,31,B,D,1,0,No Hint,Unknown,1,0,bl,0.3666667,225.3,4006,4,1,FALSE,0,6,2,1,4006.02,,40,3,2,1,Testing,,S1,2017.08.10,125,32,A,A,1,0,No Hint,Unknown,bl,bl,bl,1.35,230.7667,4006,4,1,FALSE,0,6,5,5,4006.01,,40,3,2,1,Testing,ACDB,Center EmbeddedS1,2017.08.10,126,32,C,B,1,0,No Hint,Unknown,bl,bl,bl,1.05,231.8167,4006,4,1,FALSE,0,6,1,0,4006.03,,40,3,2,1,Testing,,S1,2017.08.10,127,32,D,C,1,0,No Hint,Unknown,bl,bl,bl,0.3166667,232.1333,4006,4,1,FALSE,0,6,2,1,4006.04,,40,3,2,1,Testing,,S1,2017.08.10,128,32,B,D,1,0,No Hint,Unknown,1,0,bl,0.3333333,232.4667,4006,4,1,FALSE,0,6,0,2,4006.02,,40,3,2,1,Testing,,S1,2017.08.10,133,34,A,A,1,0,No Hint,Unknown,bl,bl,bl,1.3,243.9833,4006,4,1,FALSE,0,6,3,3,4006.01,,40,3,2,1,Testing,ACDB,Center EmbeddedS1,2017.08.10,134,34,C,B,1,0,No Hint,Unknown,bl,bl,bl,0.35,244.3333,4006,4,1,FALSE,0,6,4,0,4006.03,,40,3,2,1,Testing,,S1,2017.08.10,135,34,D,C,1,0,No Hint,Unknown,bl,bl,bl,0.7333333,245.0667,4006,4,1,FALSE,0,6,5,4,4006.04,,40,3,2,1,Testing,,S1,2017.08.10,136,34,B,D,1,0,No Hint,Unknown,1,0,bl,0.45,245.5167,4006,4,1,FALSE,0,6,0,5,4006.02,,40,3,2,1,Testing,,S1,2017.08.10,150,39,A,A,1,0,No Hint,Unknown,bl,bl,bl,1.7,276.9167,4006,4,1,FALSE,0,6,4,4,4006.01,,40,3,2,1,Testing,ACDB,Center EmbeddedS1,2017.08.10,151,39,C,B,1,0,No Hint,Unknown,bl,bl,bl,1.05,277.9667,4006,4,1,FALSE,0,6,2,1,4006.03,,40,3,2,1,Testing,,S1,2017.08.10,152,39,D,C,1,0,No Hint,Unknown,bl,bl,bl,0.25,278.2167,4006,4,1,FALSE,0,6,5,2,4006.04,,40,3,2,1,Testing,,S1,2017.08.10,153,39,B,D,1,0,No Hint,Unknown,1,0,bl,0.3166667,278.5333,4006,4,1,FALSE,0,6,1,5,4006.02,,40,3,2,1,Testing,,S1,2017.08.10,154,40,A,A,1,0,No Hint,Unknown,bl,bl,bl,1.816667,284.3167,4006,4,1,FALSE,0,6,0,0,4006.01,,40,3,2,1,Testing,ACDB,Center EmbeddedS1,2017.08.10,155,40,C,B,1,0,No Hint,Unknown,bl,bl,bl,1.483333,285.8,4006,4,1,FALSE,0,6,5,2,4006.03,,40,3,2,1,Testing,,S1,2017.08.10,156,40,D,C,1,0,No Hint,Unknown,bl,bl,bl,0.4166667,286.2167,4006,4,1,FALSE,0,6,3,5,4006.04,,40,3,2,1,Testing,,S1,2017.08.10,157,40,B,D,1,0,No Hint,Unknown,1,0,bl,0.45,286.6667,4006,4,1,FALSE,0,6,2,3,4006.02,,40,3,2,1,Testing,,S2,2017.09.27,1,1,C,A,1,0,No Hint,Unknown,bl,bl,bl,2.05,6.65,4006,4,1,FALSE,0,3,4,1,4006.03,,80,3,2,1,Testing,CABD,Center EmbeddedS2,2017.09.27,2,1,A,B,1,0,No Hint,Unknown,bl,bl,bl,1.85,8.433333,4006,4,1,FALSE,0,3,1,3,4006.01,,80,3,2,1,Testing,,S2,2017.09.27,3,1,B,C,1,0,No Hint,Unknown,bl,bl,bl,0.6166667,9.05,4006,4,1,FALSE,0,3,3,4,4006.02,,80,3,2,1,Testing,,S2,2017.09.27,4,1,D,D,1,0,No Hint,Unknown,1,0,bl,0.3333333,9.383333,4006,4,1,FALSE,0,3,2,2,4006.04,,80,3,2,1,Testing,,S2,2017.09.27,5,2,C,A,1,0,No Hint,Unknown,bl,bl,bl,1.666667,14.95,4006,4,1,FALSE,0,3,2,5,4006.03,,80,3,2,1,Testing,CABD,Center EmbeddedS2,2017.09.27,6,2,A,B,1,0,No Hint,Unknown,bl,bl,bl,0.4166667,15.36667,4006,4,1,FALSE,0,3,5,4,4006.01,,80,3,2,1,Testing,,S2,2017.09.27,7,2,B,C,1,0,No Hint,Unknown,bl,bl,bl,0.7,16.06667,4006,4,1,FALSE,0,3,4,2,4006.02,,80,3,2,1,Testing,,S2,2017.09.27,8,2,D,D,1,0,No Hint,Unknown,1,0,bl,0.25,16.31667,4006,4,1,FALSE,0,3,1,1,4006.04,,80,3,2,1,Testing,,S2,2017.09.27,13,4,C,A,1,0,No Hint,Unknown,bl,bl,bl,2,30.05,4006,4,1,FALSE,0,3,3,2,4006.03,,80,3,2,1,Testing,CABD,Center EmbeddedS2,2017.09.27,14,4,A,B,1,0,No Hint,Unknown,bl,bl,bl,0.6,30.65,4006,4,1,FALSE,0,3,2,0,4006.01,,80,3,2,1,Testing,,S2,2017.09.27,15,4,B,C,1,0,No Hint,Unknown,bl,bl,bl,0.5,31.15,4006,4,1,FALSE,0,3,0,3,4006.02,,80,3,2,1,Testing,,S2,2017.09.27,16,4,D,D,1,0,No Hint,Unknown,1,0,bl,0.2666667,31.41667,4006,4,1,FALSE,0,3,1,1,4006.04,,80,3,2,1,Testing,,S2,2017.09.27,30,9,C,A,1,0,No Hint,Unknown,bl,bl,bl,1.4,65.4,4006,4,1,FALSE,0,3,2,1,4006.03,,80,3,2,1,Testing,CABD,Center EmbeddedS2,2017.09.27,31,9,A,B,1,0,No Hint,Unknown,bl,bl,bl,1.116667,66.51667,4006,4,1,FALSE,0,3,1,4,4006.01,,80,3,2,1,Testing,,S2,2017.09.27,32,9,B,C,1,0,No Hint,Unknown,bl,bl,bl,0.3,66.81667,4006,4,1,FALSE,0,3,4,2,4006.02,,80,3,2,1,Testing,,S2,2017.09.27,33,9,D,D,1,0,No Hint,Unknown,1,0,bl,0.3166667,67.13333,4006,4,1,FALSE,0,3,0,0,4006.04,,80,3,2,1,Testing,,S2,2017.09.27,34,10,C,A,1,0,No Hint,Unknown,bl,bl,bl,1.1,72.13333,4006,4,1,FALSE,0,3,1,3,4006.03,,80,3,2,1,Testing,CADB,CrossedS2,2017.09.27,35,10,A,B,1,0,No Hint,Unknown,bl,bl,bl,0.3166667,72.45,4006,4,1,FALSE,0,3,3,5,4006.01,,80,3,2,1,Testing,,S2,2017.09.27,36,10,D,C,1,0,No Hint,Unknown,bl,bl,bl,0.3,72.75,4006,4,1,FALSE,0,3,4,1,4006.04,,80,3,2,1,Testing,,S2,2017.09.27,37,10,B,D,1,0,No Hint,Unknown,1,0,bl,2.916667,75.66667,4006,4,1,FALSE,0,3,5,4,4006.02,,80,3,2,1,Testing,,S2,2017.09.27,38,11,C,A,1,0,No Hint,Unknown,bl,bl,bl,4.116667,83.61667,4006,4,1,FALSE,0,3,0,3,4006.03,,80,3,2,1,Testing,CABD,Center EmbeddedS2,2017.09.27,39,11,A,B,1,0,No Hint,Unknown,bl,bl,bl,0.9666667,84.58333,4006,4,1,FALSE,0,3,3,1,4006.01,,80,3,2,1,Testing,,S2,2017.09.27,40,11,B,C,1,0,No Hint,Unknown,bl,bl,bl,0.8666667,85.45,4006,4,1,FALSE,0,3,1,0,4006.02,,80,3,2,1,Testing,,S2,2017.09.27,41,11,D,D,1,0,No Hint,Unknown,1,0,bl,0.65,86.1,4006,4,1,FALSE,0,3,5,5,4006.04,,80,3,2,1,Testing,,S2,2017.09.27,46,13,C,A,1,0,No Hint,Unknown,bl,bl,bl,2.083333,99.86667,4006,4,1,FALSE,0,3,2,0,4006.03,,80,3,2,1,Testing,CABD,Center EmbeddedS2,2017.09.27,47,13,A,B,1,0,No Hint,Unknown,bl,bl,bl,1.766667,101.6333,4006,4,1,FALSE,0,3,0,5,4006.01,,80,3,2,1,Testing,,S2,2017.09.27,48,13,B,C,1,0,No Hint,Unknown,bl,bl,bl,0.4666667,102.1,4006,4,1,FALSE,0,3,5,2,4006.02,,80,3,2,1,Testing,,S2,2017.09.27,49,13,D,D,1,0,No Hint,Unknown,1,0,bl,0.4333333,102.5333,4006,4,1,FALSE,0,3,3,3,4006.04,,80,3,2,1,Testing,,S2,2017.09.27,50,14,C,A,1,0,No Hint,Unknown,bl,bl,bl,1.95,108.3333,4006,4,1,FALSE,0,3,3,4,4006.03,,80,3,2,1,Testing,CADB,CrossedS2,2017.09.27,51,14,A,B,1,0,No Hint,Unknown,bl,bl,bl,0.2833333,108.6167,4006,4,1,FALSE,0,3,4,2,4006.01,,80,3,2,1,Testing,,S2,2017.09.27,52,14,D,C,1,0,No Hint,Unknown,bl,bl,bl,0.6,109.2167,4006,4,1,FALSE,0,3,0,3,4006.04,,80,3,2,1,Testing,,S2,2017.09.27,53,14,B,D,1,0,No Hint,Unknown,1,0,bl,0.3833333,109.6,4006,4,1,FALSE,0,3,2,0,4006.02,,80,3,2,1,Testing,,S2,2017.09.27,54,15,C,A,1,0,No Hint,Unknown,bl,bl,bl,1.683333,115.7833,4006,4,1,FALSE,0,3,2,3,4006.03,,80,3,2,1,Testing,CABD,Center EmbeddedS2,2017.09.27,55,15,A,B,1,0,No Hint,Unknown,bl,bl,bl,0.35,116.1333,4006,4,1,FALSE,0,3,3,5,4006.01,,80,3,2,1,Testing,,S2,2017.09.27,56,15,B,C,1,0,No Hint,Unknown,bl,bl,bl,0.5333333,116.6667,4006,4,1,FALSE,0,3,5,2,4006.02,,80,3,2,1,Testing,,S2,2017.09.27,57,15,D,D,1,0,No Hint,Unknown,1,0,bl,0.2833333,116.95,4006,4,1,FALSE,0,3,1,1,4006.04,,80,3,2,1,Testing,,S2,2017.09.27,58,16,C,A,1,0,No Hint,Unknown,bl,bl,bl,2.983333,123.85,4006,4,1,FALSE,0,3,4,3,4006.03,,80,3,2,1,Testing,CADB,CrossedS2,2017.09.27,59,16,A,B,1,0,No Hint,Unknown,bl,bl,bl,1.016667,124.8667,4006,4,1,FALSE,0,3,3,5,4006.01,,80,3,2,1,Testing,,S2,2017.09.27,60,16,D,C,1,0,No Hint,Unknown,bl,bl,bl,1.133333,126,4006,4,1,FALSE,0,3,1,4,4006.04,,80,3,2,1,Testing,,S2,2017.09.27,61,16,B,D,1,0,No Hint,Unknown,1,0,bl,0.35,126.35,4006,4,1,FALSE,0,3,5,1,4006.02,,80,3,2,1,Testing,,S2,2017.09.27,62,17,C,A,1,0,No Hint,Unknown,bl,bl,bl,2.333333,132.6,4006,4,1,FALSE,0,3,0,5,4006.03,,80,3,2,1,Testing,CADB,CrossedS2,2017.09.27,63,17,A,B,1,0,No Hint,Unknown,bl,bl,bl,0.3833333,132.9833,4006,4,1,FALSE,0,3,5,4,4006.01,,80,3,2,1,Testing,,S2,2017.09.27,64,17,D,C,1,0,No Hint,Unknown,bl,bl,bl,0.4,133.3833,4006,4,1,FALSE,0,3,3,0,4006.04,,80,3,2,1,Testing,,S2,2017.09.27,65,17,B,D,1,0,No Hint,Unknown,1,0,bl,0.35,133.7333,4006,4,1,FALSE,0,3,4,3,4006.02,,80,3,2,1,Testing,,S2,2017.09.27,66,18,C,A,1,0,No Hint,Unknown,bl,bl,bl,1.683333,139.3333,4006,4,1,FALSE,0,3,1,3,4006.03,,80,3,2,1,Testing,CADB,CrossedS2,2017.09.27,67,18,A,B,1,0,No Hint,Unknown,bl,bl,bl,0.25,139.5833,4006,4,1,FALSE,0,3,3,5,4006.01,,80,3,2,1,Testing,,S2,2017.09.27,68,18,D,C,1,0,No Hint,Unknown,bl,bl,bl,0.2666667,139.85,4006,4,1,FALSE,0,3,2,1,4006.04,,80,3,2,1,Testing,,S2,2017.09.27,69,18,B,D,1,0,No Hint,Unknown,1,0,bl,0.25,140.1,4006,4,1,FALSE,0,3,5,2,4006.02,,80,3,2,1,Testing,,S2,2017.09.27,75,21,C,A,1,0,No Hint,Unknown,bl,bl,bl,2.266667,161.5333,4006,4,1,FALSE,0,3,3,2,4006.03,,80,3,2,1,Testing,CADB,CrossedS2,2017.09.27,76,21,A,B,1,0,No Hint,Unknown,bl,bl,bl,0.6166667,162.15,4006,4,1,FALSE,0,3,2,1,4006.01,,80,3,2,1,Testing,,S2,2017.09.27,77,21,D,C,1,0,No Hint,Unknown,bl,bl,bl,0.5,162.65,4006,4,1,FALSE,0,3,5,3,4006.04,,80,3,2,1,Testing,,S2,2017.09.27,78,21,B,D,1,0,No Hint,Unknown,1,0,bl,0.3833333,163.0333,4006,4,1,FALSE,0,3,1,5,4006.02,,80,3,2,1,Testing,,S2,2017.09.27,79,22,C,A,1,0,No Hint,Unknown,bl,bl,bl,1.3,168.35,4006,4,1,FALSE,0,3,5,1,4006.03,,80,3,2,1,Testing,CABD,Center EmbeddedS2,2017.09.27,80,22,A,B,1,0,No Hint,Unknown,bl,bl,bl,0.3666667,168.7167,4006,4,1,FALSE,0,3,1,2,4006.01,,80,3,2,1,Testing,,S2,2017.09.27,81,22,B,C,1,0,No Hint,Unknown,bl,bl,bl,0.3666667,169.0833,4006,4,1,FALSE,0,3,2,5,4006.02,,80,3,2,1,Testing,,S2,2017.09.27,82,22,D,D,1,0,No Hint,Unknown,1,0,bl,0.3333333,169.4167,4006,4,1,FALSE,0,3,4,4,4006.04,,80,3,2,1,Testing,,S2,2017.09.27,91,25,C,A,1,0,No Hint,Unknown,bl,bl,bl,1.933333,189.2333,4006,4,1,FALSE,0,3,2,3,4006.03,,80,3,2,1,Testing,CABD,Center EmbeddedS2,2017.09.27,92,25,A,B,1,0,No Hint,Unknown,bl,bl,bl,0.3666667,189.6,4006,4,1,FALSE,0,3,3,4,4006.01,,80,3,2,1,Testing,,S2,2017.09.27,93,25,B,C,1,0,No Hint,Unknown,bl,bl,bl,0.3166667,189.9167,4006,4,1,FALSE,0,3,4,2,4006.02,,80,3,2,1,Testing,,S2,2017.09.27,94,25,D,D,1,0,No Hint,Unknown,1,0,bl,0.3166667,190.2333,4006,4,1,FALSE,0,3,5,5,4006.04,,80,3,2,1,Testing,,S2,2017.09.27,95,26,C,A,1,0,No Hint,Unknown,bl,bl,bl,2.7,196.9333,4006,4,1,FALSE,0,3,0,2,4006.03,,80,3,2,1,Testing,CABD,Center EmbeddedS2,2017.09.27,96,26,A,B,1,0,No Hint,Unknown,bl,bl,bl,1,197.9333,4006,4,1,FALSE,0,3,2,4,4006.01,,80,3,2,1,Testing,,S2,2017.09.27,97,26,B,C,1,0,No Hint,Unknown,bl,bl,bl,0.2833333,198.2167,4006,4,1,FALSE,0,3,4,0,4006.02,,80,3,2,1,Testing,,S2,2017.09.27,98,26,D,D,1,0,No Hint,Unknown,1,0,bl,0.2333333,198.45,4006,4,1,FALSE,0,3,1,1,4006.04,,80,3,2,1,Testing,,S2,2017.09.27,118,32,C,A,1,0,No Hint,Unknown,bl,bl,bl,1.65,239.4167,4006,4,1,FALSE,0,3,5,4,4006.03,,80,3,2,1,Testing,CABD,Center EmbeddedS2,2017.09.27,119,32,A,B,1,0,No Hint,Unknown,bl,bl,bl,0.3666667,239.7833,4006,4,1,FALSE,0,3,4,0,4006.01,,80,3,2,1,Testing,,S2,2017.09.27,120,32,B,C,1,0,No Hint,Unknown,bl,bl,bl,0.4166667,240.2,4006,4,1,FALSE,0,3,0,5,4006.02,,80,3,2,1,Testing,,S2,2017.09.27,121,32,D,D,1,0,No Hint,Unknown,1,0,bl,0.3833333,240.5833,4006,4,1,FALSE,0,3,2,2,4006.04,,80,3,2,1,Testing,,S2,2017.09.27,122,33,C,A,1,0,No Hint,Unknown,bl,bl,bl,2.1,246.6833,4006,4,1,FALSE,0,3,3,0,4006.03,,80,3,2,1,Testing,CABD,Center EmbeddedS2,2017.09.27,123,33,A,B,1,0,No Hint,Unknown,bl,bl,bl,0.3166667,247,4006,4,1,FALSE,0,3,0,5,4006.01,,80,3,2,1,Testing,,S2,2017.09.27,124,33,B,C,1,0,No Hint,Unknown,bl,bl,bl,0.35,247.35,4006,4,1,FALSE,0,3,5,3,4006.02,,80,3,2,1,Testing,,S2,2017.09.27,125,33,D,D,1,0,No Hint,Unknown,1,0,bl,0.3,247.65,4006,4,1,FALSE,0,3,2,2,4006.04,,80,3,2,1,Testing,,S2,2017.09.27,126,34,C,A,1,0,No Hint,Unknown,bl,bl,bl,4.016667,255.6,4006,4,1,FALSE,0,3,5,2,4006.03,,80,3,2,1,Testing,CABD,Center EmbeddedS2,2017.09.27,127,34,A,B,1,0,No Hint,Unknown,bl,bl,bl,0.8166667,256.4167,4006,4,1,FALSE,0,3,2,1,4006.01,,80,3,2,1,Testing,,S2,2017.09.27,128,34,B,C,1,0,No Hint,Unknown,bl,bl,bl,0.4333333,256.85,4006,4,1,FALSE,0,3,1,5,4006.02,,80,3,2,1,Testing,,S2,2017.09.27,129,34,D,D,1,0,No Hint,Unknown,1,0,bl,0.3,257.15,4006,4,1,FALSE,0,3,4,4,4006.04,,80,3,2,1,Testing,,S2,2017.09.27,142,38,C,A,1,0,No Hint,Unknown,bl,bl,bl,1.85,284.4333,4006,4,1,FALSE,0,3,4,5,4006.03,,80,3,2,1,Testing,CABD,Center EmbeddedS2,2017.09.27,143,38,A,B,1,0,No Hint,Unknown,bl,bl,bl,0.9,285.3333,4006,4,1,FALSE,0,3,5,2,4006.01,,80,3,2,1,Testing,,S2,2017.09.27,144,38,B,C,1,0,No Hint,Unknown,bl,bl,bl,0.2666667,285.6,4006,4,1,FALSE,0,3,2,4,4006.02,,80,3,2,1,Testing,,S2,2017.09.27,145,38,D,D,1,0,No Hint,Unknown,1,0,bl,0.35,285.95,4006,4,1,FALSE,0,3,0,0,4006.04,,80,3,2,1,Testing,,S2,2017.09.27,150,40,C,A,1,0,No Hint,Unknown,bl,bl,bl,1.45,297.5333,4006,4,1,FALSE,0,3,4,3,4006.03,,80,3,2,1,Testing,CABD,Center EmbeddedS2,2017.09.27,151,40,A,B,1,0,No Hint,Unknown,bl,bl,bl,0.3,297.8333,4006,4,1,FALSE,0,3,3,0,4006.01,,80,3,2,1,Testing,,S2,2017.09.27,152,40,B,C,1,0,No Hint,Unknown,bl,bl,bl,0.4833333,298.3167,4006,4,1,FALSE,0,3,0,4,4006.02,,80,3,2,1,Testing,,S2,2017.09.27,153,40,D,D,1,0,No Hint,Unknown,1,0,bl,0.2333333,298.55,4006,4,1,FALSE,0,3,1,1,4006.04,,80,3,2,1,Testing,,S2,2017.09.27,158,42,C,A,1,0,No Hint,Unknown,bl,bl,bl,3.15,311.85,4006,4,1,FALSE,0,3,2,3,4006.03,,80,3,2,1,Testing,CABD,Center EmbeddedS2,2017.09.27,159,42,A,B,1,0,No Hint,Unknown,bl,bl,bl,0.3833333,312.2333,4006,4,1,FALSE,0,3,3,1,4006.01,,80,3,2,1,Testing,,S2,2017.09.27,160,42,B,C,1,0,No Hint,Unknown,bl,bl,bl,0.7333333,312.9667,4006,4,1,FALSE,0,3,1,2,4006.02,,80,3,2,1,Testing,,S2,2017.09.27,161,42,D,D,1,0,No Hint,Unknown,1,0,bl,0.7333333,313.7,4006,4,1,FALSE,0,3,5,5,4006.04,,80,3,2,1,Testing,,S2,2017.09.27,162,43,C,A,1,0,No Hint,Unknown,bl,bl,bl,1.366667,319.2333,4006,4,1,FALSE,0,3,4,5,4006.03,,80,3,2,1,Testing,CABD,Center EmbeddedS2,2017.09.27,163,43,A,B,1,0,No Hint,Unknown,bl,bl,bl,0.25,319.4833,4006,4,1,FALSE,0,3,5,1,4006.01,,80,3,2,1,Testing,,S2,2017.09.27,164,43,B,C,1,0,No Hint,Unknown,bl,bl,bl,0.3666667,319.85,4006,4,1,FALSE,0,3,1,4,4006.02,,80,3,2,1,Testing,,S2,2017.09.27,165,43,D,D,1,0,No Hint,Unknown,1,0,bl,0.2666667,320.1167,4006,4,1,FALSE,0,3,3,3,4006.04,,80,3,2,1,Testing,,S2,2017.09.27,166,44,C,A,1,0,No Hint,Unknown,bl,bl,bl,2.216667,327.2833,4006,4,1,FALSE,0,3,1,2,4006.03,,80,3,2,1,Testing,CABD,Center EmbeddedS2,2017.09.27,167,44,A,B,1,0,No Hint,Unknown,bl,bl,bl,0.3333333,327.6167,4006,4,1,FALSE,0,3,2,5,4006.01,,80,3,2,1,Testing,,S2,2017.09.27,168,44,B,C,1,0,No Hint,Unknown,bl,bl,bl,0.2833333,327.9,4006,4,1,FALSE,0,3,5,1,4006.02,,80,3,2,1,Testing,,S2,2017.09.27,169,44,D,D,1,0,No Hint,Unknown,1,0,bl,0.3,328.2,4006,4,1,FALSE,0,3,4,4,4006.04,,80,3,2,1,Testing,,S2,2017.09.27,198,52,C,A,1,0,No Hint,Unknown,bl,bl,bl,1.2,381.0833,4006,4,1,FALSE,0,3,4,2,4006.03,,80,3,2,1,Testing,CABD,Center EmbeddedS2,2017.09.27,199,52,A,B,1,0,No Hint,Unknown,bl,bl,bl,0.5,381.5833,4006,4,1,FALSE,0,3,2,3,4006.01,,80,3,2,1,Testing,,S2,2017.09.27,200,52,B,C,1,0,No Hint,Unknown,bl,bl,bl,0.6666667,382.25,4006,4,1,FALSE,0,3,3,4,4006.02,,80,3,2,1,Testing,,S2,2017.09.27,201,52,D,D,1,0,No Hint,Unknown,1,0,bl,0.2666667,382.5167,4006,4,1,FALSE,0,3,1,1,4006.04,,80,3,2,1,Testing,,S2,2017.09.27,202,53,C,A,1,0,No Hint,Unknown,bl,bl,bl,2,388.5167,4006,4,1,FALSE,0,3,4,5,4006.03,,80,3,2,1,Testing,CABD,Center EmbeddedS2,2017.09.27,203,53,A,B,1,0,No Hint,Unknown,bl,bl,bl,0.3166667,388.8333,4006,4,1,FALSE,0,3,5,0,4006.01,,80,3,2,1,Testing,,S2,2017.09.27,204,53,B,C,1,0,No Hint,Unknown,bl,bl,bl,1.15,389.9833,4006,4,1,FALSE,0,3,0,4,4006.02,,80,3,2,1,Testing,,S2,2017.09.27,205,53,D,D,1,0,No Hint,Unknown,1,0,bl,0.3166667,390.3,4006,4,1,FALSE,0,3,1,1,4006.04,,80,3,2,1,Testing,,S2,2017.09.27,206,54,C,A,1,0,No Hint,Unknown,bl,bl,bl,1.416667,395.75,4006,4,1,FALSE,0,3,3,1,4006.03,,80,3,2,1,Testing,CABD,Center EmbeddedS2,2017.09.27,207,54,A,B,1,0,No Hint,Unknown,bl,bl,bl,0.3,396.05,4006,4,1,FALSE,0,3,1,5,4006.01,,80,3,2,1,Testing,,S2,2017.09.27,208,54,B,C,1,0,No Hint,Unknown,bl,bl,bl,0.6,396.65,4006,4,1,FALSE,0,3,5,3,4006.02,,80,3,2,1,Testing,,S2,2017.09.27,209,54,D,D,1,0,No Hint,Unknown,1,0,bl,0.2833333,396.9333,4006,4,1,FALSE,0,3,4,4,4006.04,,80,3,2,1,Testing,,S2,2017.09.27,214,56,A,A,1,0,No Hint,Unknown,bl,bl,bl,1.65,410.6667,4006,4,1,FALSE,0,3,3,3,4006.01,,80,3,2,1,Testing,ACDB,Center EmbeddedS2,2017.09.27,215,56,C,B,1,0,No Hint,Unknown,bl,bl,bl,0.35,411.0167,4006,4,1,FALSE,0,3,0,1,4006.03,,80,3,2,1,Testing,,S2,2017.09.27,216,56,D,C,1,0,No Hint,Unknown,bl,bl,bl,2.9,413.9167,4006,4,1,FALSE,0,3,2,0,4006.04,,80,3,2,1,Testing,,S2,2017.09.27,217,56,B,D,1,0,No Hint,Unknown,1,0,bl,0.3833333,414.3,4006,4,1,FALSE,0,3,1,2,4006.02,,80,3,2,1,Testing,,S2,2017.09.27,226,59,C,A,1,0,No Hint,Unknown,bl,bl,bl,1.366667,433,4006,4,1,FALSE,0,3,4,1,4006.03,,80,3,2,1,Testing,CABD,Center EmbeddedS2,2017.09.27,227,59,A,B,1,0,No Hint,Unknown,bl,bl,bl,0.8333333,433.8333,4006,4,1,FALSE,0,3,1,3,4006.01,,80,3,2,1,Testing,,S2,2017.09.27,228,59,B,C,1,0,No Hint,Unknown,bl,bl,bl,0.6166667,434.45,4006,4,1,FALSE,0,3,3,4,4006.02,,80,3,2,1,Testing,,S2,2017.09.27,229,59,D,D,1,0,No Hint,Unknown,1,0,bl,0.5,434.95,4006,4,1,FALSE,0,3,0,0,4006.04,,80,3,2,1,Testing,,S2,2017.09.27,230,60,C,A,1,0,No Hint,Unknown,bl,bl,bl,1.45,440.65,4006,4,1,FALSE,0,3,1,5,4006.03,,80,3,2,1,Testing,CABD,Center EmbeddedS2,2017.09.27,231,60,A,B,1,0,No Hint,Unknown,bl,bl,bl,0.4333333,441.0833,4006,4,1,FALSE,0,3,5,4,4006.01,,80,3,2,1,Testing,,S2,2017.09.27,232,60,B,C,1,0,No Hint,Unknown,bl,bl,bl,0.3666667,441.45,4006,4,1,FALSE,0,3,4,1,4006.02,,80,3,2,1,Testing,,S2,2017.09.27,233,60,D,D,1,0,No Hint,Unknown,1,0,bl,0.95,442.4,4006,4,1,FALSE,0,3,0,0,4006.04,,80,3,2,1,Testing,,S2,2017.09.27,242,63,C,A,1,0,No Hint,Unknown,bl,bl,bl,1.8,461.7167,4006,4,1,FALSE,0,3,1,3,4006.03,,80,3,2,1,Testing,CABD,Center EmbeddedS2,2017.09.27,243,63,A,B,1,0,No Hint,Unknown,bl,bl,bl,0.2666667,461.9833,4006,4,1,FALSE,0,3,3,4,4006.01,,80,3,2,1,Testing,,S2,2017.09.27,244,63,B,C,1,0,No Hint,Unknown,bl,bl,bl,0.2666667,462.25,4006,4,1,FALSE,0,3,4,1,4006.02,,80,3,2,1,Testing,,S2,2017.09.27,245,63,D,D,1,0,No Hint,Unknown,1,0,bl,0.2166667,462.4667,4006,4,1,FALSE,0,3,5,5,4006.04,,80,3,2,1,Testing,,S2,2017.09.27,249,65,C,A,1,0,No Hint,Unknown,bl,bl,bl,1.866667,476.4833,4006,4,1,FALSE,0,3,1,4,4006.03,,80,3,2,1,Testing,CABD,Center EmbeddedS2,2017.09.27,250,65,A,B,1,0,No Hint,Unknown,bl,bl,bl,0.3,476.7833,4006,4,1,FALSE,0,3,4,5,4006.01,,80,3,2,1,Testing,,S2,2017.09.27,251,65,B,C,1,0,No Hint,Unknown,bl,bl,bl,0.2833333,477.0667,4006,4,1,FALSE,0,3,5,1,4006.02,,80,3,2,1,Testing,,S2,2017.09.27,252,65,D,D,1,0,No Hint,Unknown,1,0,bl,0.3666667,477.4333,4006,4,1,FALSE,0,3,0,0,4006.04,,80,3,2,1,Testing,,S2,2017.09.27,253,66,C,A,1,0,No Hint,Unknown,bl,bl,bl,1.366667,482.8167,4006,4,1,FALSE,0,3,3,1,4006.03,,80,3,2,1,Testing,CABD,Center EmbeddedS2,2017.09.27,254,66,A,B,1,0,No Hint,Unknown,bl,bl,bl,0.3833333,483.2,4006,4,1,FALSE,0,3,1,4,4006.01,,80,3,2,1,Testing,,S2,2017.09.27,255,66,B,C,1,0,No Hint,Unknown,bl,bl,bl,0.3166667,483.5167,4006,4,1,FALSE,0,3,4,3,4006.02,,80,3,2,1,Testing,,S2,2017.09.27,256,66,D,D,1,0,No Hint,Unknown,1,0,bl,0.2666667,483.7833,4006,4,1,FALSE,0,3,2,2,4006.04,,80,3,2,1,Testing,,S2,2017.09.27,261,68,A,A,1,0,No Hint,Unknown,bl,bl,bl,1.833333,495.0667,4006,4,1,FALSE,0,3,4,4,4006.01,,80,3,2,1,Testing,ACDB,Center EmbeddedS2,2017.09.27,262,68,C,B,1,0,No Hint,Unknown,bl,bl,bl,0.3333333,495.4,4006,4,1,FALSE,0,3,0,3,4006.03,,80,3,2,1,Testing,,S2,2017.09.27,263,68,D,C,1,0,No Hint,Unknown,bl,bl,bl,0.2833333,495.6833,4006,4,1,FALSE,0,3,1,0,4006.04,,80,3,2,1,Testing,,S2,2017.09.27,264,68,B,D,1,0,No Hint,Unknown,1,0,bl,0.7833333,496.4667,4006,4,1,FALSE,0,3,3,1,4006.02,,80,3,2,1,Testing,,S2,2017.09.27,273,71,C,A,1,0,No Hint,Unknown,bl,bl,bl,1.616667,515.05,4006,4,1,FALSE,0,3,0,1,4006.03,,80,3,2,1,Testing,CABD,Center EmbeddedS2,2017.09.27,274,71,A,B,1,0,No Hint,Unknown,bl,bl,bl,0.3,515.35,4006,4,1,FALSE,0,3,1,4,4006.01,,80,3,2,1,Testing,,S2,2017.09.27,275,71,B,C,1,0,No Hint,Unknown,bl,bl,bl,0.75,516.1,4006,4,1,FALSE,0,3,4,0,4006.02,,80,3,2,1,Testing,,S2,2017.09.27,276,71,D,D,1,0,No Hint,Unknown,1,0,bl,0.7166667,516.8167,4006,4,1,FALSE,0,3,3,3,4006.04,,80,3,2,1,Testing,,S2,2017.09.27,277,72,C,A,1,0,No Hint,Unknown,bl,bl,bl,1.433333,524.1833,4006,4,1,FALSE,0,3,5,3,4006.03,,80,3,2,1,Testing,CABD,Center EmbeddedS2,2017.09.27,278,72,A,B,1,0,No Hint,Unknown,bl,bl,bl,0.3333333,524.5167,4006,4,1,FALSE,0,3,3,2,4006.01,,80,3,2,1,Testing,,S2,2017.09.27,279,72,B,C,1,0,No Hint,Unknown,bl,bl,bl,0.3166667,524.8333,4006,4,1,FALSE,0,3,2,5,4006.02,,80,3,2,1,Testing,,S2,2017.09.27,280,72,D,D,1,0,No Hint,Unknown,1,0,bl,0.8166667,525.65,4006,4,1,FALSE,0,3,1,1,4006.04,,80,3,2,1,Testing,,S2,2017.09.27,289,75,C,A,1,0,No Hint,Unknown,bl,bl,bl,1.283333,544.75,4006,4,1,FALSE,0,3,3,1,4006.03,,80,3,2,1,Testing,CABD,Center EmbeddedS2,2017.09.27,290,75,A,B,1,0,No Hint,Unknown,bl,bl,bl,0.4333333,545.1833,4006,4,1,FALSE,0,3,1,2,4006.01,,80,3,2,1,Testing,,S2,2017.09.27,291,75,B,C,1,0,No Hint,Unknown,bl,bl,bl,0.3666667,545.55,4006,4,1,FALSE,0,3,2,3,4006.02,,80,3,2,1,Testing,,S2,2017.09.27,292,75,D,D,1,0,No Hint,Unknown,1,0,bl,0.3333333,545.8833,4006,4,1,FALSE,0,3,4,4,4006.04,,80,3,2,1,Testing,,S2,2017.09.27,297,77,A,A,1,0,No Hint,Unknown,bl,bl,bl,1.583333,559.5167,4006,4,1,FALSE,0,3,2,2,4006.01,,80,3,2,1,Testing,ACDB,Center EmbeddedS2,2017.09.27,298,77,C,B,1,0,No Hint,Unknown,bl,bl,bl,0.3,559.8167,4006,4,1,FALSE,0,3,1,0,4006.03,,80,3,2,1,Testing,,S2,2017.09.27,299,77,D,C,1,0,No Hint,Unknown,bl,bl,bl,0.2833333,560.1,4006,4,1,FALSE,0,3,3,1,4006.04,,80,3,2,1,Testing,,S2,2017.09.27,300,77,B,D,1,0,No Hint,Unknown,1,0,bl,0.2666667,560.3667,4006,4,1,FALSE,0,3,0,3,4006.02,,80,3,2,1,Testing,,S2,2017.09.27,301,78,C,A,1,0,No Hint,Unknown,bl,bl,bl,2.2,566.2,4006,4,1,FALSE,0,3,1,2,4006.03,,80,3,2,1,Testing,CABD,Center EmbeddedS2,2017.09.27,302,78,A,B,1,0,No Hint,Unknown,bl,bl,bl,0.3166667,566.5167,4006,4,1,FALSE,0,3,2,3,4006.01,,80,3,2,1,Testing,,S2,2017.09.27,303,78,B,C,1,0,No Hint,Unknown,bl,bl,bl,0.4,566.9167,4006,4,1,FALSE,0,3,3,1,4006.02,,80,3,2,1,Testing,,S2,2017.09.27,304,78,D,D,1,0,No Hint,Unknown,1,0,bl,0.3,567.2167,4006,4,1,FALSE,0,3,0,0,4006.04,,80,3,2,1,Testing,,S2,2017.09.27,305,79,C,A,1,0,No Hint,Unknown,bl,bl,bl,1.1,572.6667,4006,4,1,FALSE,0,3,3,0,4006.03,,80,3,2,1,Testing,CABD,Center EmbeddedS2,2017.09.27,306,79,A,B,1,0,No Hint,Unknown,bl,bl,bl,0.6666667,573.3333,4006,4,1,FALSE,0,3,0,5,4006.01,,80,3,2,1,Testing,,S2,2017.09.27,307,79,B,C,1,0,No Hint,Unknown,bl,bl,bl,0.3833333,573.7167,4006,4,1,FALSE,0,3,5,3,4006.02,,80,3,2,1,Testing,,S2,2017.09.27,308,79,D,D,1,0,No Hint,Unknown,1,0,bl,0.85,574.5667,4006,4,1,FALSE,0,3,2,2,4006.04,,80,3,2,1,Testing,,S4,2017.09.28,13,4,A,A,1,0,No Hint,Unknown,bl,bl,bl,3.833333,31.26667,4006,4,1,FALSE,0,3,4,4,4006.01,,80,3,2,1,Testing,ACDB,Center EmbeddedS4,2017.09.28,14,4,C,B,1,0,No Hint,Unknown,bl,bl,bl,0.8,32.06667,4006,4,1,FALSE,0,3,3,1,4006.03,,80,3,2,1,Testing,,S4,2017.09.28,15,4,D,C,1,0,No Hint,Unknown,bl,bl,bl,0.8166667,32.88333,4006,4,1,FALSE,0,3,5,3,4006.04,,80,3,2,1,Testing,,S4,2017.09.28,16,4,B,D,1,0,No Hint,Unknown,1,0,bl,0.25,33.13333,4006,4,1,FALSE,0,3,1,5,4006.02,,80,3,2,1,Testing,,S4,2017.09.28,25,7,A,A,1,0,No Hint,Unknown,bl,bl,bl,2.033333,54.33333,4006,4,1,FALSE,0,3,2,2,4006.01,,80,3,2,1,Testing,ACDB,Center EmbeddedS4,2017.09.28,26,7,C,B,1,0,No Hint,Unknown,bl,bl,bl,0.3,54.63333,4006,4,1,FALSE,0,3,1,5,4006.03,,80,3,2,1,Testing,,S4,2017.09.28,27,7,D,C,1,0,No Hint,Unknown,bl,bl,bl,0.2666667,54.9,4006,4,1,FALSE,0,3,0,1,4006.04,,80,3,2,1,Testing,,S4,2017.09.28,28,7,B,D,1,0,No Hint,Unknown,1,0,bl,0.2833333,55.18333,4006,4,1,FALSE,0,3,5,0,4006.02,,80,3,2,1,Testing,,S4,2017.09.28,33,9,A,A,1,0,No Hint,Unknown,bl,bl,bl,2.333333,68.83333,4006,4,1,FALSE,0,3,5,5,4006.01,,80,3,2,1,Testing,ACDB,Center EmbeddedS4,2017.09.28,34,9,C,B,1,0,No Hint,Unknown,bl,bl,bl,0.3833333,69.21667,4006,4,1,FALSE,0,3,3,1,4006.03,,80,3,2,1,Testing,,S4,2017.09.28,35,9,D,C,1,0,No Hint,Unknown,bl,bl,bl,0.7666667,69.98333,4006,4,1,FALSE,0,3,2,3,4006.04,,80,3,2,1,Testing,,S4,2017.09.28,36,9,B,D,1,0,No Hint,Unknown,1,0,bl,0.2666667,70.25,4006,4,1,FALSE,0,3,1,2,4006.02,,80,3,2,1,Testing,,S4,2017.09.28,45,12,A,A,1,0,No Hint,Unknown,bl,bl,bl,1.433333,90.3,4006,4,1,FALSE,0,3,0,0,4006.01,,80,3,2,1,Testing,ACDB,Center EmbeddedS4,2017.09.28,46,12,C,B,1,0,No Hint,Unknown,bl,bl,bl,0.3166667,90.61667,4006,4,1,FALSE,0,3,3,1,4006.03,,80,3,2,1,Testing,,S4,2017.09.28,47,12,D,C,1,0,No Hint,Unknown,bl,bl,bl,0.3166667,90.93333,4006,4,1,FALSE,0,3,5,3,4006.04,,80,3,2,1,Testing,,S4,2017.09.28,48,12,B,D,1,0,No Hint,Unknown,1,0,bl,0.3166667,91.25,4006,4,1,FALSE,0,3,1,5,4006.02,,80,3,2,1,Testing,,S4,2017.09.28,49,13,A,A,1,0,No Hint,Unknown,bl,bl,bl,1.666667,96.81667,4006,4,1,FALSE,0,3,5,5,4006.01,,80,3,2,1,Testing,ACDB,Center EmbeddedS4,2017.09.28,50,13,C,B,1,0,No Hint,Unknown,bl,bl,bl,0.3333333,97.15,4006,4,1,FALSE,0,3,2,4,4006.03,,80,3,2,1,Testing,,S4,2017.09.28,51,13,D,C,1,0,No Hint,Unknown,bl,bl,bl,0.3,97.45,4006,4,1,FALSE,0,3,1,2,4006.04,,80,3,2,1,Testing,,S4,2017.09.28,52,13,B,D,1,0,No Hint,Unknown,1,0,bl,0.3,97.75,4006,4,1,FALSE,0,3,4,1,4006.02,,80,3,2,1,Testing,,S4,2017.09.28,53,14,A,A,1,0,No Hint,Unknown,bl,bl,bl,1.533333,103.2,4006,4,1,FALSE,0,3,3,3,4006.01,,80,3,2,1,Testing,ACDB,Center EmbeddedS4,2017.09.28,54,14,C,B,1,0,No Hint,Unknown,bl,bl,bl,0.3166667,103.5167,4006,4,1,FALSE,0,3,2,1,4006.03,,80,3,2,1,Testing,,S4,2017.09.28,55,14,D,C,1,0,No Hint,Unknown,bl,bl,bl,0.3166667,103.8333,4006,4,1,FALSE,0,3,4,2,4006.04,,80,3,2,1,Testing,,S4,2017.09.28,56,14,B,D,1,0,No Hint,Unknown,1,0,bl,0.3166667,104.15,4006,4,1,FALSE,0,3,1,4,4006.02,,80,3,2,1,Testing,,S4,2017.09.28,57,15,A,A,1,0,No Hint,Unknown,bl,bl,bl,1.383333,109.2667,4006,4,1,FALSE,0,3,0,0,4006.01,,80,3,2,1,Testing,ACDB,Center EmbeddedS4,2017.09.28,58,15,C,B,1,0,No Hint,Unknown,bl,bl,bl,0.3166667,109.5833,4006,4,1,FALSE,0,3,3,4,4006.03,,80,3,2,1,Testing,,S4,2017.09.28,59,15,D,C,1,0,No Hint,Unknown,bl,bl,bl,0.2666667,109.85,4006,4,1,FALSE,0,3,5,3,4006.04,,80,3,2,1,Testing,,S4,2017.09.28,60,15,B,D,1,0,No Hint,Unknown,1,0,bl,0.75,110.6,4006,4,1,FALSE,0,3,4,5,4006.02,,80,3,2,1,Testing,,S4,2017.09.28,61,16,A,A,1,0,No Hint,Unknown,bl,bl,bl,1.3,115.5167,4006,4,1,FALSE,0,3,5,5,4006.01,,80,3,2,1,Testing,ACDB,Center EmbeddedS4,2017.09.28,62,16,C,B,1,0,No Hint,Unknown,bl,bl,bl,0.3666667,115.8833,4006,4,1,FALSE,0,3,1,4,4006.03,,80,3,2,1,Testing,,S4,2017.09.28,63,16,D,C,1,0,No Hint,Unknown,bl,bl,bl,0.3,116.1833,4006,4,1,FALSE,0,3,3,1,4006.04,,80,3,2,1,Testing,,S4,2017.09.28,64,16,B,D,1,0,No Hint,Unknown,1,0,bl,0.7166667,116.9,4006,4,1,FALSE,0,3,4,3,4006.02,,80,3,2,1,Testing,,S4,2017.09.28,65,17,A,A,1,0,No Hint,Unknown,bl,bl,bl,2.583333,123.2333,4006,4,1,FALSE,0,3,3,3,4006.01,,80,3,2,1,Testing,ACDB,Center EmbeddedS4,2017.09.28,66,17,C,B,1,0,No Hint,Unknown,bl,bl,bl,0.2666667,123.5,4006,4,1,FALSE,0,3,0,2,4006.03,,80,3,2,1,Testing,,S4,2017.09.28,67,17,D,C,1,0,No Hint,Unknown,bl,bl,bl,0.3333333,123.8333,4006,4,1,FALSE,0,3,1,0,4006.04,,80,3,2,1,Testing,,S4,2017.09.28,68,17,B,D,1,0,No Hint,Unknown,1,0,bl,0.2833333,124.1167,4006,4,1,FALSE,0,3,2,1,4006.02,,80,3,2,1,Testing,,S4,2017.09.28,77,20,A,A,1,0,No Hint,Unknown,bl,bl,bl,1.533333,142.5,4006,4,1,FALSE,0,3,5,5,4006.01,,80,3,2,1,Testing,ACDB,Center EmbeddedS4,2017.09.28,78,20,C,B,1,0,No Hint,Unknown,bl,bl,bl,0.35,142.85,4006,4,1,FALSE,0,3,3,4,4006.03,,80,3,2,1,Testing,,S4,2017.09.28,79,20,D,C,1,0,No Hint,Unknown,bl,bl,bl,0.3166667,143.1667,4006,4,1,FALSE,0,3,2,3,4006.04,,80,3,2,1,Testing,,S4,2017.09.28,80,20,B,D,1,0,No Hint,Unknown,1,0,bl,0.6833333,143.85,4006,4,1,FALSE,0,3,4,2,4006.02,,80,3,2,1,Testing,,S4,2017.09.28,85,22,A,A,1,0,No Hint,Unknown,bl,bl,bl,1.75,155.9833,4006,4,1,FALSE,0,3,4,4,4006.01,,80,3,2,1,Testing,ACDB,Center EmbeddedS4,2017.09.28,86,22,C,B,1,0,No Hint,Unknown,bl,bl,bl,0.3833333,156.3667,4006,4,1,FALSE,0,3,3,1,4006.03,,80,3,2,1,Testing,,S4,2017.09.28,87,22,D,C,1,0,No Hint,Unknown,bl,bl,bl,0.3166667,156.6833,4006,4,1,FALSE,0,3,0,3,4006.04,,80,3,2,1,Testing,,S4,2017.09.28,88,22,B,D,1,0,No Hint,Unknown,1,0,bl,0.2833333,156.9667,4006,4,1,FALSE,0,3,1,0,4006.02,,80,3,2,1,Testing,,S4,2017.09.28,89,23,A,A,1,0,No Hint,Unknown,bl,bl,bl,1.566667,162.2667,4006,4,1,FALSE,0,3,0,0,4006.01,,80,3,2,1,Testing,ACDB,Center EmbeddedS4,2017.09.28,90,23,C,B,1,0,No Hint,Unknown,bl,bl,bl,0.9166667,163.1833,4006,4,1,FALSE,0,3,3,2,4006.03,,80,3,2,1,Testing,,S4,2017.09.28,91,23,D,C,1,0,No Hint,Unknown,bl,bl,bl,0.2833333,163.4667,4006,4,1,FALSE,0,3,4,3,4006.04,,80,3,2,1,Testing,,S4,2017.09.28,92,23,B,D,1,0,No Hint,Unknown,1,0,bl,0.3166667,163.7833,4006,4,1,FALSE,0,3,2,4,4006.02,,80,3,2,1,Testing,,S4,2017.09.28,93,24,A,A,1,0,No Hint,Unknown,bl,bl,bl,1.3,168.7833,4006,4,1,FALSE,0,3,5,5,4006.01,,80,3,2,1,Testing,ACDB,Center EmbeddedS4,2017.09.28,94,24,C,B,1,0,No Hint,Unknown,bl,bl,bl,0.3,169.0833,4006,4,1,FALSE,0,3,4,0,4006.03,,80,3,2,1,Testing,,S4,2017.09.28,95,24,D,C,1,0,No Hint,Unknown,bl,bl,bl,0.45,169.5333,4006,4,1,FALSE,0,3,2,4,4006.04,,80,3,2,1,Testing,,S4,2017.09.28,96,24,B,D,1,0,No Hint,Unknown,1,0,bl,0.2666667,169.8,4006,4,1,FALSE,0,3,0,2,4006.02,,80,3,2,1,Testing,,S4,2017.09.28,97,25,A,A,1,0,No Hint,Unknown,bl,bl,bl,1.25,174.7,4006,4,1,FALSE,0,3,0,0,4006.01,,80,3,2,1,Testing,ACDB,Center EmbeddedS4,2017.09.28,98,25,C,B,1,0,No Hint,Unknown,bl,bl,bl,0.3166667,175.0167,4006,4,1,FALSE,0,3,4,3,4006.03,,80,3,2,1,Testing,,S4,2017.09.28,99,25,D,C,1,0,No Hint,Unknown,bl,bl,bl,0.3,175.3167,4006,4,1,FALSE,0,3,2,4,4006.04,,80,3,2,1,Testing,,S4,2017.09.28,100,25,B,D,1,0,No Hint,Unknown,1,0,bl,0.2333333,175.55,4006,4,1,FALSE,0,3,3,2,4006.02,,80,3,2,1,Testing,,S4,2017.09.28,109,28,A,A,1,0,No Hint,Unknown,bl,bl,bl,1.666667,195.2333,4006,4,1,FALSE,0,3,0,0,4006.01,,80,3,2,1,Testing,ACDB,Center EmbeddedS4,2017.09.28,110,28,C,B,1,0,No Hint,Unknown,bl,bl,bl,0.8666667,196.1,4006,4,1,FALSE,0,3,3,1,4006.03,,80,3,2,1,Testing,,S4,2017.09.28,111,28,D,C,1,0,No Hint,Unknown,bl,bl,bl,0.2833333,196.3833,4006,4,1,FALSE,0,3,4,3,4006.04,,80,3,2,1,Testing,,S4,2017.09.28,112,28,B,D,1,0,No Hint,Unknown,1,0,bl,0.2666667,196.65,4006,4,1,FALSE,0,3,1,4,4006.02,,80,3,2,1,Testing,,S4,2017.09.28,113,29,A,A,1,0,No Hint,Unknown,bl,bl,bl,1.283333,201.8333,4006,4,1,FALSE,0,3,3,3,4006.01,,80,3,2,1,Testing,ACDB,Center EmbeddedS4,2017.09.28,114,29,C,B,1,0,No Hint,Unknown,bl,bl,bl,0.3166667,202.15,4006,4,1,FALSE,0,3,4,1,4006.03,,80,3,2,1,Testing,,S4,2017.09.28,115,29,D,C,1,0,No Hint,Unknown,bl,bl,bl,0.3333333,202.4833,4006,4,1,FALSE,0,3,2,4,4006.04,,80,3,2,1,Testing,,S4,2017.09.28,116,29,B,D,1,0,No Hint,Unknown,1,0,bl,0.2833333,202.7667,4006,4,1,FALSE,0,3,1,2,4006.02,,80,3,2,1,Testing,,S4,2017.09.28,117,30,A,A,1,0,No Hint,Unknown,bl,bl,bl,1.85,208.0667,4006,4,1,FALSE,0,3,4,4,4006.01,,80,3,2,1,Testing,ACDB,Center EmbeddedS4,2017.09.28,118,30,C,B,1,0,No Hint,Unknown,bl,bl,bl,0.2833333,208.35,4006,4,1,FALSE,0,3,3,2,4006.03,,80,3,2,1,Testing,,S4,2017.09.28,119,30,D,C,1,0,No Hint,Unknown,bl,bl,bl,0.25,208.6,4006,4,1,FALSE,0,3,0,3,4006.04,,80,3,2,1,Testing,,S4,2017.09.28,120,30,B,D,1,0,No Hint,Unknown,1,0,bl,0.2833333,208.8833,4006,4,1,FALSE,0,3,2,0,4006.02,,80,3,2,1,Testing,,S4,2017.09.28,129,33,A,A,1,0,No Hint,Unknown,bl,bl,bl,2,227.4333,4006,4,1,FALSE,0,3,1,1,4006.01,,80,3,2,1,Testing,ACDB,Center EmbeddedS4,2017.09.28,130,33,C,B,1,0,No Hint,Unknown,bl,bl,bl,0.2833333,227.7167,4006,4,1,FALSE,0,3,5,2,4006.03,,80,3,2,1,Testing,,S4,2017.09.28,131,33,D,C,1,0,No Hint,Unknown,bl,bl,bl,0.3,228.0167,4006,4,1,FALSE,0,3,3,5,4006.04,,80,3,2,1,Testing,,S4,2017.09.28,132,33,B,D,1,0,No Hint,Unknown,1,0,bl,0.2833333,228.3,4006,4,1,FALSE,0,3,2,3,4006.02,,80,3,2,1,Testing,,S4,2017.09.28,137,35,A,A,1,0,No Hint,Unknown,bl,bl,bl,1.216667,239.3667,4006,4,1,FALSE,0,3,4,4,4006.01,,80,3,2,1,Testing,ACDB,Center EmbeddedS4,2017.09.28,138,35,C,B,1,0,No Hint,Unknown,bl,bl,bl,0.2666667,239.6333,4006,4,1,FALSE,0,3,5,2,4006.03,,80,3,2,1,Testing,,S4,2017.09.28,139,35,D,C,1,0,No Hint,Unknown,bl,bl,bl,0.3666667,240,4006,4,1,FALSE,0,3,3,5,4006.04,,80,3,2,1,Testing,,S4,2017.09.28,140,35,B,D,1,0,No Hint,Unknown,1,0,bl,0.2666667,240.2667,4006,4,1,FALSE,0,3,2,3,4006.02,,80,3,2,1,Testing,,S4,2017.09.28,153,39,A,A,1,0,No Hint,Unknown,bl,bl,bl,1.95,266.2167,4006,4,1,FALSE,0,3,3,3,4006.01,,80,3,2,1,Testing,ACDB,Center EmbeddedS4,2017.09.28,154,39,C,B,1,0,No Hint,Unknown,bl,bl,bl,0.3333333,266.55,4006,4,1,FALSE,0,3,2,1,4006.03,,80,3,2,1,Testing,,S4,2017.09.28,155,39,D,C,1,0,No Hint,Unknown,bl,bl,bl,0.7,267.25,4006,4,1,FALSE,0,3,4,2,4006.04,,80,3,2,1,Testing,,S4,2017.09.28,156,39,B,D,1,0,No Hint,Unknown,1,0,bl,0.3,267.55,4006,4,1,FALSE,0,3,1,4,4006.02,,80,3,2,1,Testing,,S4,2017.09.28,177,45,A,A,1,0,No Hint,Unknown,bl,bl,bl,1.733333,307,4006,4,1,FALSE,0,3,1,1,4006.01,,80,3,2,1,Testing,ACDB,Center EmbeddedS4,2017.09.28,178,45,C,B,1,0,No Hint,Unknown,bl,bl,bl,0.2833333,307.2833,4006,4,1,FALSE,0,3,2,0,4006.03,,80,3,2,1,Testing,,S4,2017.09.28,179,45,D,C,1,0,No Hint,Unknown,bl,bl,bl,0.2666667,307.55,4006,4,1,FALSE,0,3,3,2,4006.04,,80,3,2,1,Testing,,S4,2017.09.28,180,45,B,D,1,0,No Hint,Unknown,1,0,bl,0.25,307.8,4006,4,1,FALSE,0,3,0,3,4006.02,,80,3,2,1,Testing,,S4,2017.09.28,197,50,A,A,1,0,No Hint,Unknown,bl,bl,bl,1.5,337.1333,4006,4,1,FALSE,0,3,1,1,4006.01,,80,3,2,1,Testing,ACDB,Center EmbeddedS4,2017.09.28,198,50,C,B,1,0,No Hint,Unknown,bl,bl,bl,0.2833333,337.4333,4006,4,1,FALSE,0,3,2,0,4006.03,,80,3,2,1,Testing,,S4,2017.09.28,199,50,D,C,1,0,No Hint,Unknown,bl,bl,bl,0.2833333,337.7,4006,4,1,FALSE,0,3,5,2,4006.04,,80,3,2,1,Testing,,S4,2017.09.28,200,50,B,D,1,0,No Hint,Unknown,1,0,bl,0.2666667,337.9667,4006,4,1,FALSE,0,3,0,5,4006.02,,80,3,2,1,Testing,,S4,2017.09.28,201,51,A,A,1,0,No Hint,Unknown,bl,bl,bl,1.4,343.0167,4006,4,1,FALSE,0,3,3,3,4006.01,,80,3,2,1,Testing,ACDB,Center EmbeddedS4,2017.09.28,202,51,C,B,1,0,No Hint,Unknown,bl,bl,bl,0.25,343.2667,4006,4,1,FALSE,0,3,0,2,4006.03,,80,3,2,1,Testing,,S4,2017.09.28,203,51,D,C,1,0,No Hint,Unknown,bl,bl,bl,0.25,343.5167,4006,4,1,FALSE,0,3,1,0,4006.04,,80,3,2,1,Testing,,S4,2017.09.28,204,51,B,D,1,0,No Hint,Unknown,1,0,bl,0.2666667,343.7833,4006,4,1,FALSE,0,3,2,1,4006.02,,80,3,2,1,Testing,,S4,2017.09.28,205,52,A,A,1,0,No Hint,Unknown,bl,bl,bl,1.433333,348.9333,4006,4,1,FALSE,0,3,4,4,4006.01,,80,3,2,1,Testing,ACDB,Center EmbeddedS4,2017.09.28,206,52,C,B,1,0,No Hint,Unknown,bl,bl,bl,0.3,349.2333,4006,4,1,FALSE,0,3,5,3,4006.03,,80,3,2,1,Testing,,S4,2017.09.28,207,52,D,C,1,0,No Hint,Unknown,bl,bl,bl,0.2666667,349.5,4006,4,1,FALSE,0,3,1,5,4006.04,,80,3,2,1,Testing,,S4,2017.09.28,208,52,B,D,1,0,No Hint,Unknown,1,0,bl,0.2,349.7,4006,4,1,FALSE,0,3,3,1,4006.02,,80,3,2,1,Testing,,S4,2017.09.28,217,55,A,A,1,0,No Hint,Unknown,bl,bl,bl,1.483333,367.8667,4006,4,1,FALSE,0,3,0,0,4006.01,,80,3,2,1,Testing,ACDB,Center EmbeddedS4,2017.09.28,218,55,C,B,1,0,No Hint,Unknown,bl,bl,bl,0.2833333,368.15,4006,4,1,FALSE,0,3,3,1,4006.03,,80,3,2,1,Testing,,S4,2017.09.28,219,55,D,C,1,0,No Hint,Unknown,bl,bl,bl,0.3,368.45,4006,4,1,FALSE,0,3,4,3,4006.04,,80,3,2,1,Testing,,S4,2017.09.28,220,55,B,D,1,0,No Hint,Unknown,1,0,bl,0.2833333,368.7333,4006,4,1,FALSE,0,3,1,4,4006.02,,80,3,2,1,Testing,,S4,2017.09.28,221,56,A,A,1,0,No Hint,Unknown,bl,bl,bl,1.65,374.0833,4006,4,1,FALSE,0,3,4,4,4006.01,,80,3,2,1,Testing,ACDB,Center EmbeddedS4,2017.09.28,222,56,C,B,1,0,No Hint,Unknown,bl,bl,bl,0.2666667,374.35,4006,4,1,FALSE,0,3,5,2,4006.03,,80,3,2,1,Testing,,S4,2017.09.28,223,56,D,C,1,0,No Hint,Unknown,bl,bl,bl,0.2666667,374.6167,4006,4,1,FALSE,0,3,3,5,4006.04,,80,3,2,1,Testing,,S4,2017.09.28,224,56,B,D,1,0,No Hint,Unknown,1,0,bl,0.2666667,374.8833,4006,4,1,FALSE,0,3,2,3,4006.02,,80,3,2,1,Testing,,S4,2017.09.28,237,60,A,A,1,0,No Hint,Unknown,bl,bl,bl,2.05,398.6167,4006,4,1,FALSE,0,3,3,3,4006.01,,80,3,2,1,Testing,ACDB,Center EmbeddedS4,2017.09.28,238,60,C,B,1,0,No Hint,Unknown,bl,bl,bl,0.2833333,398.9,4006,4,1,FALSE,0,3,1,4,4006.03,,80,3,2,1,Testing,,S4,2017.09.28,239,60,D,C,1,0,No Hint,Unknown,bl,bl,bl,0.4166667,399.3167,4006,4,1,FALSE,0,3,0,1,4006.04,,80,3,2,1,Testing,,S4,2017.09.28,240,60,B,D,1,0,No Hint,Unknown,1,0,bl,0.2666667,399.5833,4006,4,1,FALSE,0,3,4,0,4006.02,,80,3,2,1,Testing,,S4,2017.09.28,245,62,A,A,1,0,No Hint,Unknown,bl,bl,bl,1.566667,411.1,4006,4,1,FALSE,0,3,1,1,4006.01,,80,3,2,1,Testing,ACBD,CrossedS4,2017.09.28,246,62,C,B,1,0,No Hint,Unknown,bl,bl,bl,0.2833333,411.3833,4006,4,1,FALSE,0,3,5,0,4006.03,,80,3,2,1,Testing,,S4,2017.09.28,247,62,B,C,1,0,No Hint,Unknown,bl,bl,bl,0.5,411.8833,4006,4,1,FALSE,0,3,0,5,4006.02,,80,3,2,1,Testing,,S4,2017.09.28,248,62,D,D,1,0,No Hint,Unknown,1,0,bl,2.966667,414.85,4006,4,1,FALSE,0,3,4,4,4006.04,,80,3,2,1,Testing,,S4,2017.09.28,261,66,A,A,1,0,No Hint,Unknown,bl,bl,bl,1.966667,441.3833,4006,4,1,FALSE,0,3,3,3,4006.01,,80,3,2,1,Testing,ACDB,Center EmbeddedS4,2017.09.28,262,66,C,B,1,0,No Hint,Unknown,bl,bl,bl,0.4666667,441.85,4006,4,1,FALSE,0,3,5,2,4006.03,,80,3,2,1,Testing,,S4,2017.09.28,263,66,D,C,1,0,No Hint,Unknown,bl,bl,bl,0.2666667,442.1167,4006,4,1,FALSE,0,3,4,5,4006.04,,80,3,2,1,Testing,,S4,2017.09.28,264,66,B,D,1,0,No Hint,Unknown,1,0,bl,0.2833333,442.4,4006,4,1,FALSE,0,3,2,4,4006.02,,80,3,2,1,Testing,,S4,2017.09.28,265,67,A,A,1,0,No Hint,Unknown,bl,bl,bl,1.383333,447.6,4006,4,1,FALSE,0,3,1,1,4006.01,,80,3,2,1,Testing,ACDB,Center EmbeddedS4,2017.09.28,266,67,C,B,1,0,No Hint,Unknown,bl,bl,bl,0.85,448.45,4006,4,1,FALSE,0,3,3,0,4006.03,,80,3,2,1,Testing,,S4,2017.09.28,267,67,D,C,1,0,No Hint,Unknown,bl,bl,bl,0.4,448.85,4006,4,1,FALSE,0,3,2,3,4006.04,,80,3,2,1,Testing,,S4,2017.09.28,268,67,B,D,1,0,No Hint,Unknown,1,0,bl,0.3,449.15,4006,4,1,FALSE,0,3,0,2,4006.02,,80,3,2,1,Testing,,S4,2017.09.28,269,68,A,A,1,0,No Hint,Unknown,bl,bl,bl,1.3,454.1333,4006,4,1,FALSE,0,3,4,4,4006.01,,80,3,2,1,Testing,ACDB,Center EmbeddedS4,2017.09.28,270,68,C,B,1,0,No Hint,Unknown,bl,bl,bl,0.3,454.4333,4006,4,1,FALSE,0,3,2,3,4006.03,,80,3,2,1,Testing,,S4,2017.09.28,271,68,D,C,1,0,No Hint,Unknown,bl,bl,bl,0.3166667,454.75,4006,4,1,FALSE,0,3,0,2,4006.04,,80,3,2,1,Testing,,S4,2017.09.28,272,68,B,D,1,0,No Hint,Unknown,1,0,bl,0.2666667,455.0167,4006,4,1,FALSE,0,3,3,0,4006.02,,80,3,2,1,Testing,,S4,2017.09.28,273,69,A,A,1,0,No Hint,Unknown,bl,bl,bl,1.633333,460.4667,4006,4,1,FALSE,0,3,0,0,4006.01,,80,3,2,1,Testing,ACDB,Center EmbeddedS4,2017.09.28,274,69,C,B,1,0,No Hint,Unknown,bl,bl,bl,0.3,460.7667,4006,4,1,FALSE,0,3,3,5,4006.03,,80,3,2,1,Testing,,S4,2017.09.28,275,69,D,C,1,0,No Hint,Unknown,bl,bl,bl,0.2833333,461.05,4006,4,1,FALSE,0,3,1,3,4006.04,,80,3,2,1,Testing,,S4,2017.09.28,276,69,B,D,1,0,No Hint,Unknown,1,0,bl,0.2666667,461.3167,4006,4,1,FALSE,0,3,5,1,4006.02,,80,3,2,1,Testing,,S4,2017.09.28,281,71,A,A,1,0,No Hint,Unknown,bl,bl,bl,1.7,473.9833,4006,4,1,FALSE,0,3,0,0,4006.01,,80,3,2,1,Testing,ACDB,Center EmbeddedS4,2017.09.28,282,71,C,B,1,0,No Hint,Unknown,bl,bl,bl,0.3,474.2833,4006,4,1,FALSE,0,3,4,1,4006.03,,80,3,2,1,Testing,,S4,2017.09.28,283,71,D,C,1,0,No Hint,Unknown,bl,bl,bl,0.4,474.6833,4006,4,1,FALSE,0,3,2,4,4006.04,,80,3,2,1,Testing,,S4,2017.09.28,284,71,B,D,1,0,No Hint,Unknown,1,0,bl,0.2166667,474.9,4006,4,1,FALSE,0,3,1,2,4006.02,,80,3,2,1,Testing,,S4,2017.09.28,285,72,A,A,1,0,No Hint,Unknown,bl,bl,bl,1.416667,480.15,4006,4,1,FALSE,0,3,3,3,4006.01,,80,3,2,1,Testing,ACDB,Center EmbeddedS4,2017.09.28,286,72,C,B,1,0,No Hint,Unknown,bl,bl,bl,0.3166667,480.4667,4006,4,1,FALSE,0,3,5,4,4006.03,,80,3,2,1,Testing,,S4,2017.09.28,287,72,D,C,1,0,No Hint,Unknown,bl,bl,bl,0.4,480.8667,4006,4,1,FALSE,0,3,0,5,4006.04,,80,3,2,1,Testing,,S4,2017.09.28,288,72,B,D,1,0,No Hint,Unknown,1,0,bl,0.2833333,481.15,4006,4,1,FALSE,0,3,4,0,4006.02,,80,3,2,1,Testing,,S4,2017.09.28,293,74,A,A,1,0,No Hint,Unknown,bl,bl,bl,1.266667,492.1667,4006,4,1,FALSE,0,3,5,5,4006.01,,80,3,2,1,Testing,ACDB,Center EmbeddedS4,2017.09.28,294,74,C,B,1,0,No Hint,Unknown,bl,bl,bl,0.3,492.4667,4006,4,1,FALSE,0,3,4,1,4006.03,,80,3,2,1,Testing,,S4,2017.09.28,295,74,D,C,1,0,No Hint,Unknown,bl,bl,bl,0.3166667,492.7833,4006,4,1,FALSE,0,3,0,4,4006.04,,80,3,2,1,Testing,,S4,2017.09.28,296,74,B,D,1,0,No Hint,Unknown,1,0,bl,0.2166667,493,4006,4,1,FALSE,0,3,1,0,4006.02,,80,3,2,1,Testing,,S4,2017.09.28,297,75,A,A,1,0,No Hint,Unknown,bl,bl,bl,1.466667,498.4167,4006,4,1,FALSE,0,3,3,3,4006.01,,80,3,2,1,Testing,ACDB,Center EmbeddedS4,2017.09.28,298,75,C,B,1,0,No Hint,Unknown,bl,bl,bl,0.55,498.9667,4006,4,1,FALSE,0,3,2,5,4006.03,,80,3,2,1,Testing,,S4,2017.09.28,299,75,D,C,1,0,No Hint,Unknown,bl,bl,bl,0.2666667,499.2333,4006,4,1,FALSE,0,3,4,2,4006.04,,80,3,2,1,Testing,,S4,2017.09.28,300,75,B,D,1,0,No Hint,Unknown,1,0,bl,0.2833333,499.5167,4006,4,1,FALSE,0,3,5,4,4006.02,,80,3,2,1,Testing,,S4,2017.09.28,301,76,A,A,1,0,No Hint,Unknown,bl,bl,bl,1.45,504.8,4006,4,1,FALSE,0,3,0,0,4006.01,,80,3,2,1,Testing,ACDB,Center EmbeddedS4,2017.09.28,302,76,C,B,1,0,No Hint,Unknown,bl,bl,bl,0.25,505.05,4006,4,1,FALSE,0,3,1,2,4006.03,,80,3,2,1,Testing,,S4,2017.09.28,303,76,D,C,1,0,No Hint,Unknown,bl,bl,bl,0.2833333,505.3333,4006,4,1,FALSE,0,3,5,1,4006.04,,80,3,2,1,Testing,,S4,2017.09.28,304,76,B,D,1,0,No Hint,Unknown,1,0,bl,0.25,505.5833,4006,4,1,FALSE,0,3,2,5,4006.02,,80,3,2,1,Testing,,S4,2017.09.28,305,77,A,A,1,0,No Hint,Unknown,bl,bl,bl,1.433333,512.35,4006,4,1,FALSE,0,3,3,3,4006.01,,80,3,2,1,Testing,ACDB,Center EmbeddedS4,2017.09.28,306,77,C,B,1,0,No Hint,Unknown,bl,bl,bl,0.3,512.65,4006,4,1,FALSE,0,3,1,4,4006.03,,80,3,2,1,Testing,,S4,2017.09.28,307,77,D,C,1,0,No Hint,Unknown,bl,bl,bl,0.2333333,512.8833,4006,4,1,FALSE,0,3,2,1,4006.04,,80,3,2,1,Testing,,S4,2017.09.28,308,77,B,D,1,0,No Hint,Unknown,1,0,bl,0.2166667,513.1,4006,4,1,FALSE,0,3,4,2,4006.02,,80,3,2,1,Testing,,S4,2017.09.28,309,78,A,A,1,0,No Hint,Unknown,bl,bl,bl,1.966667,519.05,4006,4,1,FALSE,0,3,1,1,4006.01,,80,3,2,1,Testing,ACDB,Center EmbeddedS4,2017.09.28,310,78,C,B,1,0,No Hint,Unknown,bl,bl,bl,0.25,519.3,4006,4,1,FALSE,0,3,5,3,4006.03,,80,3,2,1,Testing,,S4,2017.09.28,311,78,D,C,1,0,No Hint,Unknown,bl,bl,bl,0.2833333,519.5833,4006,4,1,FALSE,0,3,0,5,4006.04,,80,3,2,1,Testing,,S4,2017.09.28,312,78,B,D,1,0,No Hint,Unknown,1,0,bl,0.7166667,520.3,4006,4,1,FALSE,0,3,3,0,4006.02,,80,3,2,1,Testing,,S4,2017.09.28,317,80,A,A,1,0,No Hint,Unknown,bl,bl,bl,1.433333,536.5667,4006,4,1,FALSE,0,3,3,3,4006.01,,80,3,2,1,Testing,ACDB,Center EmbeddedS4,2017.09.28,318,80,C,B,1,0,No Hint,Unknown,bl,bl,bl,0.25,536.8167,4006,4,1,FALSE,0,3,4,2,4006.03,,80,3,2,1,Testing,,S4,2017.09.28,319,80,D,C,1,0,No Hint,Unknown,bl,bl,bl,0.2333333,537.05,4006,4,1,FALSE,0,3,5,4,4006.04,,80,3,2,1,Testing,,S4,2017.09.28,320,80,B,D,1,0,No Hint,Unknown,1,0,bl,0.2333333,537.2833,4006,4,1,FALSE,0,3,2,5,4006.02,,80,3,2,1,Testing,,S3,2017.09.28,1,1,A,A,1,0,No Hint,Unknown,bl,bl,bl,1.633333,13.53333,4006,4,1,FALSE,0,3,4,4,4006.01,,80,3,2,1,Testing,ACBD,CrossedS3,2017.09.28,2,1,C,B,1,0,No Hint,Unknown,bl,bl,bl,0.9,14.36667,4006,4,1,FALSE,0,3,5,0,4006.03,,80,3,2,1,Testing,,S3,2017.09.28,3,1,B,C,1,0,No Hint,Unknown,bl,bl,bl,1.7,16.06667,4006,4,1,FALSE,0,3,0,5,4006.02,,80,3,2,1,Testing,,S3,2017.09.28,4,1,D,D,1,0,No Hint,Unknown,1,0,bl,0.3,16.36667,4006,4,1,FALSE,0,3,2,2,4006.04,,80,3,2,1,Testing,,S3,2017.09.28,14,5,C,A,1,0,No Hint,Unknown,bl,bl,bl,1.816667,43.95,4006,4,1,FALSE,0,3,5,0,4006.03,,80,3,2,1,Testing,CABD,Center EmbeddedS3,2017.09.28,15,5,A,B,1,0,No Hint,Unknown,bl,bl,bl,0.3666667,44.31667,4006,4,1,FALSE,0,3,0,3,4006.01,,80,3,2,1,Testing,,S3,2017.09.28,16,5,B,C,1,0,No Hint,Unknown,bl,bl,bl,0.4,44.71667,4006,4,1,FALSE,0,3,3,5,4006.02,,80,3,2,1,Testing,,S3,2017.09.28,17,5,D,D,1,0,No Hint,Unknown,1,0,bl,0.2166667,44.93333,4006,4,1,FALSE,0,3,1,1,4006.04,,80,3,2,1,Testing,,S3,2017.09.28,18,6,C,A,1,0,No Hint,Unknown,bl,bl,bl,1.516667,51.8,4006,4,1,FALSE,0,3,5,4,4006.03,,80,3,2,1,Testing,CABD,Center EmbeddedS3,2017.09.28,19,6,A,B,1,0,No Hint,Unknown,bl,bl,bl,0.3166667,52.11667,4006,4,1,FALSE,0,3,4,3,4006.01,,80,3,2,1,Testing,,S3,2017.09.28,20,6,B,C,1,0,No Hint,Unknown,bl,bl,bl,0.2666667,52.38333,4006,4,1,FALSE,0,3,3,5,4006.02,,80,3,2,1,Testing,,S3,2017.09.28,21,6,D,D,1,0,No Hint,Unknown,1,0,bl,0.25,52.63333,4006,4,1,FALSE,0,3,1,1,4006.04,,80,3,2,1,Testing,,S3,2017.09.28,27,9,C,A,1,0,No Hint,Unknown,bl,bl,bl,1.5,73.21667,4006,4,1,FALSE,0,3,1,2,4006.03,,80,3,2,1,Testing,CABD,Center EmbeddedS3,2017.09.28,28,9,A,B,1,0,No Hint,Unknown,bl,bl,bl,0.2833333,73.5,4006,4,1,FALSE,0,3,2,5,4006.01,,80,3,2,1,Testing,,S3,2017.09.28,29,9,B,C,1,0,No Hint,Unknown,bl,bl,bl,0.2666667,73.76667,4006,4,1,FALSE,0,3,5,1,4006.02,,80,3,2,1,Testing,,S3,2017.09.28,30,9,D,D,1,0,No Hint,Unknown,1,0,bl,0.3333333,74.1,4006,4,1,FALSE,0,3,0,0,4006.04,,80,3,2,1,Testing,,S3,2017.09.28,31,10,C,A,1,0,No Hint,Unknown,bl,bl,bl,1.516667,79.61667,4006,4,1,FALSE,0,3,2,4,4006.03,,80,3,2,1,Testing,CABD,Center EmbeddedS3,2017.09.28,32,10,A,B,1,0,No Hint,Unknown,bl,bl,bl,0.2666667,79.88333,4006,4,1,FALSE,0,3,4,5,4006.01,,80,3,2,1,Testing,,S3,2017.09.28,33,10,B,C,1,0,No Hint,Unknown,bl,bl,bl,0.2166667,80.1,4006,4,1,FALSE,0,3,5,2,4006.02,,80,3,2,1,Testing,,S3,2017.09.28,34,10,D,D,1,0,No Hint,Unknown,1,0,bl,0.3,80.4,4006,4,1,FALSE,0,3,3,3,4006.04,,80,3,2,1,Testing,,S3,2017.09.28,35,11,C,A,1,0,No Hint,Unknown,bl,bl,bl,1.2,85.23333,4006,4,1,FALSE,0,3,0,4,4006.03,,80,3,2,1,Testing,CABD,Center EmbeddedS3,2017.09.28,36,11,A,B,1,0,No Hint,Unknown,bl,bl,bl,0.3,85.53333,4006,4,1,FALSE,0,3,4,1,4006.01,,80,3,2,1,Testing,,S3,2017.09.28,37,11,B,C,1,0,No Hint,Unknown,bl,bl,bl,0.2666667,85.8,4006,4,1,FALSE,0,3,1,0,4006.02,,80,3,2,1,Testing,,S3,2017.09.28,38,11,D,D,1,0,No Hint,Unknown,1,0,bl,0.2166667,86.01667,4006,4,1,FALSE,0,3,2,2,4006.04,,80,3,2,1,Testing,,S3,2017.09.28,39,12,C,A,1,0,No Hint,Unknown,bl,bl,bl,1.066667,90.91667,4006,4,1,FALSE,0,3,3,2,4006.03,,80,3,2,1,Testing,CABD,Center EmbeddedS3,2017.09.28,40,12,A,B,1,0,No Hint,Unknown,bl,bl,bl,0.3,91.21667,4006,4,1,FALSE,0,3,2,1,4006.01,,80,3,2,1,Testing,,S3,2017.09.28,41,12,B,C,1,0,No Hint,Unknown,bl,bl,bl,0.2333333,91.45,4006,4,1,FALSE,0,3,1,3,4006.02,,80,3,2,1,Testing,,S3,2017.09.28,42,12,D,D,1,0,No Hint,Unknown,1,0,bl,0.25,91.7,4006,4,1,FALSE,0,3,4,4,4006.04,,80,3,2,1,Testing,,S3,2017.09.28,51,15,C,A,1,0,No Hint,Unknown,bl,bl,bl,0.9166667,107.5,4006,4,1,FALSE,0,3,4,2,4006.03,,80,3,2,1,Testing,CABD,Center EmbeddedS3,2017.09.28,52,15,A,B,1,0,No Hint,Unknown,bl,bl,bl,0.3,107.8,4006,4,1,FALSE,0,3,2,1,4006.01,,80,3,2,1,Testing,,S3,2017.09.28,53,15,B,C,1,0,No Hint,Unknown,bl,bl,bl,0.3,108.1,4006,4,1,FALSE,0,3,1,4,4006.02,,80,3,2,1,Testing,,S3,2017.09.28,54,15,D,D,1,0,No Hint,Unknown,1,0,bl,0.2333333,108.3333,4006,4,1,FALSE,0,3,3,3,4006.04,,80,3,2,1,Testing,,S3,2017.09.28,55,16,C,A,1,0,No Hint,Unknown,bl,bl,bl,0.95,113.25,4006,4,1,FALSE,0,3,4,3,4006.03,,80,3,2,1,Testing,CABD,Center EmbeddedS3,2017.09.28,56,16,A,B,1,0,No Hint,Unknown,bl,bl,bl,0.2833333,113.5333,4006,4,1,FALSE,0,3,3,1,4006.01,,80,3,2,1,Testing,,S3,2017.09.28,57,16,B,C,1,0,No Hint,Unknown,bl,bl,bl,0.25,113.7833,4006,4,1,FALSE,0,3,1,4,4006.02,,80,3,2,1,Testing,,S3,2017.09.28,58,16,D,D,1,0,No Hint,Unknown,1,0,bl,0.3166667,114.1,4006,4,1,FALSE,0,3,5,5,4006.04,,80,3,2,1,Testing,,S3,2017.09.28,67,19,C,A,1,0,No Hint,Unknown,bl,bl,bl,0.9166667,130.8333,4006,4,1,FALSE,0,3,5,1,4006.03,,80,3,2,1,Testing,CABD,Center EmbeddedS3,2017.09.28,68,19,A,B,1,0,No Hint,Unknown,bl,bl,bl,0.3333333,131.1667,4006,4,1,FALSE,0,3,1,0,4006.01,,80,3,2,1,Testing,,S3,2017.09.28,69,19,B,C,1,0,No Hint,Unknown,bl,bl,bl,0.25,131.4167,4006,4,1,FALSE,0,3,0,5,4006.02,,80,3,2,1,Testing,,S3,2017.09.28,70,19,D,D,1,0,No Hint,Unknown,1,0,bl,0.2833333,131.7,4006,4,1,FALSE,0,3,4,4,4006.04,,80,3,2,1,Testing,,S3,2017.09.28,75,21,C,A,1,0,No Hint,Unknown,bl,bl,bl,0.9666667,141.9,4006,4,1,FALSE,0,3,2,5,4006.03,,80,3,2,1,Testing,CABD,Center EmbeddedS3,2017.09.28,76,21,A,B,1,0,No Hint,Unknown,bl,bl,bl,0.2666667,142.1667,4006,4,1,FALSE,0,3,5,3,4006.01,,80,3,2,1,Testing,,S3,2017.09.28,77,21,B,C,1,0,No Hint,Unknown,bl,bl,bl,0.3333333,142.5,4006,4,1,FALSE,0,3,3,2,4006.02,,80,3,2,1,Testing,,S3,2017.09.28,78,21,D,D,1,0,No Hint,Unknown,1,0,bl,0.25,142.75,4006,4,1,FALSE,0,3,1,1,4006.04,,80,3,2,1,Testing,,S3,2017.09.28,79,22,C,A,1,0,No Hint,Unknown,bl,bl,bl,1.083333,147.4833,4006,4,1,FALSE,0,3,1,5,4006.03,,80,3,2,1,Testing,CABD,Center EmbeddedS3,2017.09.28,80,22,A,B,1,0,No Hint,Unknown,bl,bl,bl,0.3,147.7833,4006,4,1,FALSE,0,3,5,4,4006.01,,80,3,2,1,Testing,,S3,2017.09.28,81,22,B,C,1,0,No Hint,Unknown,bl,bl,bl,0.2666667,148.05,4006,4,1,FALSE,0,3,4,1,4006.02,,80,3,2,1,Testing,,S3,2017.09.28,82,22,D,D,1,0,No Hint,Unknown,1,0,bl,0.3,148.35,4006,4,1,FALSE,0,3,0,0,4006.04,,80,3,2,1,Testing,,S3,2017.09.28,83,23,C,A,1,0,No Hint,Unknown,bl,bl,bl,1,153.1667,4006,4,1,FALSE,0,3,0,4,4006.03,,80,3,2,1,Testing,CABD,Center EmbeddedS3,2017.09.28,84,23,A,B,1,0,No Hint,Unknown,bl,bl,bl,0.3,153.4667,4006,4,1,FALSE,0,3,4,1,4006.01,,80,3,2,1,Testing,,S3,2017.09.28,85,23,B,C,1,0,No Hint,Unknown,bl,bl,bl,0.2666667,153.7333,4006,4,1,FALSE,0,3,1,0,4006.02,,80,3,2,1,Testing,,S3,2017.09.28,86,23,D,D,1,0,No Hint,Unknown,1,0,bl,0.25,153.9833,4006,4,1,FALSE,0,3,3,3,4006.04,,80,3,2,1,Testing,,S3,2017.09.28,91,25,C,A,1,0,No Hint,Unknown,bl,bl,bl,1.433333,164.8667,4006,4,1,FALSE,0,3,1,2,4006.03,,80,3,2,1,Testing,CABD,Center EmbeddedS3,2017.09.28,92,25,A,B,1,0,No Hint,Unknown,bl,bl,bl,0.3,165.1667,4006,4,1,FALSE,0,3,2,0,4006.01,,80,3,2,1,Testing,,S3,2017.09.28,93,25,B,C,1,0,No Hint,Unknown,bl,bl,bl,0.3,165.4667,4006,4,1,FALSE,0,3,0,1,4006.02,,80,3,2,1,Testing,,S3,2017.09.28,94,25,D,D,1,0,No Hint,Unknown,1,0,bl,0.3333333,165.8,4006,4,1,FALSE,0,3,5,5,4006.04,,80,3,2,1,Testing,,S3,2017.09.28,95,26,C,A,1,0,No Hint,Unknown,bl,bl,bl,1.566667,171.2333,4006,4,1,FALSE,0,3,2,0,4006.03,,80,3,2,1,Testing,CABD,Center EmbeddedS3,2017.09.28,96,26,A,B,1,0,No Hint,Unknown,bl,bl,bl,0.3,171.5333,4006,4,1,FALSE,0,3,0,5,4006.01,,80,3,2,1,Testing,,S3,2017.09.28,97,26,B,C,1,0,No Hint,Unknown,bl,bl,bl,0.3,171.8333,4006,4,1,FALSE,0,3,5,2,4006.02,,80,3,2,1,Testing,,S3,2017.09.28,98,26,D,D,1,0,No Hint,Unknown,1,0,bl,0.2,172.0333,4006,4,1,FALSE,0,3,4,4,4006.04,,80,3,2,1,Testing,,S3,2017.09.28,99,27,C,A,1,0,No Hint,Unknown,bl,bl,bl,1.75,177.3833,4006,4,1,FALSE,0,3,3,4,4006.03,,80,3,2,1,Testing,CABD,Center EmbeddedS3,2017.09.28,100,27,A,B,1,0,No Hint,Unknown,bl,bl,bl,0.25,177.6333,4006,4,1,FALSE,0,3,4,5,4006.01,,80,3,2,1,Testing,,S3,2017.09.28,101,27,B,C,1,0,No Hint,Unknown,bl,bl,bl,0.4666667,178.1,4006,4,1,FALSE,0,3,5,3,4006.02,,80,3,2,1,Testing,,S3,2017.09.28,102,27,D,D,1,0,No Hint,Unknown,1,0,bl,0.25,178.35,4006,4,1,FALSE,0,3,1,1,4006.04,,80,3,2,1,Testing,,S3,2017.09.28,107,29,C,A,1,0,No Hint,Unknown,bl,bl,bl,1.2,189.2167,4006,4,1,FALSE,0,3,4,5,4006.03,,80,3,2,1,Testing,CABD,Center EmbeddedS3,2017.09.28,108,29,A,B,1,0,No Hint,Unknown,bl,bl,bl,0.25,189.4667,4006,4,1,FALSE,0,3,5,2,4006.01,,80,3,2,1,Testing,,S3,2017.09.28,109,29,B,C,1,0,No Hint,Unknown,bl,bl,bl,0.25,189.7167,4006,4,1,FALSE,0,3,2,4,4006.02,,80,3,2,1,Testing,,S3,2017.09.28,110,29,D,D,1,0,No Hint,Unknown,1,0,bl,0.2833333,190,4006,4,1,FALSE,0,3,3,3,4006.04,,80,3,2,1,Testing,,S3,2017.09.28,111,30,C,A,1,0,No Hint,Unknown,bl,bl,bl,0.8833333,194.4833,4006,4,1,FALSE,0,3,5,0,4006.03,,80,3,2,1,Testing,CABD,Center EmbeddedS3,2017.09.28,112,30,A,B,1,0,No Hint,Unknown,bl,bl,bl,0.3,194.7833,4006,4,1,FALSE,0,3,0,3,4006.01,,80,3,2,1,Testing,,S3,2017.09.28,113,30,B,C,1,0,No Hint,Unknown,bl,bl,bl,0.2666667,195.05,4006,4,1,FALSE,0,3,3,5,4006.02,,80,3,2,1,Testing,,S3,2017.09.28,114,30,D,D,1,0,No Hint,Unknown,1,0,bl,0.25,195.3,4006,4,1,FALSE,0,3,1,1,4006.04,,80,3,2,1,Testing,,S3,2017.09.28,123,33,C,A,1,0,No Hint,Unknown,bl,bl,bl,1.083333,210.6667,4006,4,1,FALSE,0,3,2,4,4006.03,,80,3,2,1,Testing,CABD,Center EmbeddedS3,2017.09.28,124,33,A,B,1,0,No Hint,Unknown,bl,bl,bl,0.25,210.9167,4006,4,1,FALSE,0,3,4,3,4006.01,,80,3,2,1,Testing,,S3,2017.09.28,125,33,B,C,1,0,No Hint,Unknown,bl,bl,bl,0.25,211.1667,4006,4,1,FALSE,0,3,3,2,4006.02,,80,3,2,1,Testing,,S3,2017.09.28,126,33,D,D,1,0,No Hint,Unknown,1,0,bl,0.25,211.4167,4006,4,1,FALSE,0,3,1,1,4006.04,,80,3,2,1,Testing,,S3,2017.09.28,131,35,C,A,1,0,No Hint,Unknown,bl,bl,bl,0.9333333,221.75,4006,4,1,FALSE,0,3,2,0,4006.03,,80,3,2,1,Testing,CABD,Center EmbeddedS3,2017.09.28,132,35,A,B,1,0,No Hint,Unknown,bl,bl,bl,0.3166667,222.0667,4006,4,1,FALSE,0,3,0,4,4006.01,,80,3,2,1,Testing,,S3,2017.09.28,133,35,B,C,1,0,No Hint,Unknown,bl,bl,bl,0.2833333,222.35,4006,4,1,FALSE,0,3,4,2,4006.02,,80,3,2,1,Testing,,S3,2017.09.28,134,35,D,D,1,0,No Hint,Unknown,1,0,bl,0.25,222.6,4006,4,1,FALSE,0,3,3,3,4006.04,,80,3,2,1,Testing,,S3,2017.09.28,135,36,C,A,1,0,No Hint,Unknown,bl,bl,bl,1.233333,227.4667,4006,4,1,FALSE,0,3,5,2,4006.03,,80,3,2,1,Testing,CABD,Center EmbeddedS3,2017.09.28,136,36,A,B,1,0,No Hint,Unknown,bl,bl,bl,0.2333333,227.7,4006,4,1,FALSE,0,3,2,4,4006.01,,80,3,2,1,Testing,,S3,2017.09.28,137,36,B,C,1,0,No Hint,Unknown,bl,bl,bl,0.2666667,227.9667,4006,4,1,FALSE,0,3,4,5,4006.02,,80,3,2,1,Testing,,S3,2017.09.28,138,36,D,D,1,0,No Hint,Unknown,1,0,bl,0.25,228.2167,4006,4,1,FALSE,0,3,3,3,4006.04,,80,3,2,1,Testing,,S3,2017.09.28,143,38,C,A,1,0,No Hint,Unknown,bl,bl,bl,1.033333,239.3167,4006,4,1,FALSE,0,3,2,1,4006.03,,80,3,2,1,Testing,CABD,Center EmbeddedS3,2017.09.28,144,38,A,B,1,0,No Hint,Unknown,bl,bl,bl,0.2666667,239.5833,4006,4,1,FALSE,0,3,1,0,4006.01,,80,3,2,1,Testing,,S3,2017.09.28,145,38,B,C,1,0,No Hint,Unknown,bl,bl,bl,0.2666667,239.85,4006,4,1,FALSE,0,3,0,2,4006.02,,80,3,2,1,Testing,,S3,2017.09.28,146,38,D,D,1,0,No Hint,Unknown,1,0,bl,0.3166667,240.1667,4006,4,1,FALSE,0,3,5,5,4006.04,,80,3,2,1,Testing,,S3,2017.09.28,151,40,C,A,1,0,No Hint,Unknown,bl,bl,bl,1.283333,250.7833,4006,4,1,FALSE,0,3,1,5,4006.03,,80,3,2,1,Testing,CABD,Center EmbeddedS3,2017.09.28,152,40,A,B,1,0,No Hint,Unknown,bl,bl,bl,0.2833333,251.0667,4006,4,1,FALSE,0,3,5,0,4006.01,,80,3,2,1,Testing,,S3,2017.09.28,153,40,B,C,1,0,No Hint,Unknown,bl,bl,bl,0.3,251.3667,4006,4,1,FALSE,0,3,0,1,4006.02,,80,3,2,1,Testing,,S3,2017.09.28,154,40,D,D,1,0,No Hint,Unknown,1,0,bl,0.2833333,251.65,4006,4,1,FALSE,0,3,2,2,4006.04,,80,3,2,1,Testing,,S3,2017.09.28,159,42,C,A,1,0,No Hint,Unknown,bl,bl,bl,0.9666667,262.0833,4006,4,1,FALSE,0,3,4,5,4006.03,,80,3,2,1,Testing,CADB,CrossedS3,2017.09.28,160,42,A,B,1,0,No Hint,Unknown,bl,bl,bl,0.2333333,262.3167,4006,4,1,FALSE,0,3,5,3,4006.01,,80,3,2,1,Testing,,S3,2017.09.28,161,42,D,C,1,0,No Hint,Unknown,bl,bl,bl,0.2666667,262.5833,4006,4,1,FALSE,0,3,1,4,4006.04,,80,3,2,1,Testing,,S3,2017.09.28,162,42,B,D,1,0,No Hint,Unknown,1,0,bl,0.2333333,262.8167,4006,4,1,FALSE,0,3,3,1,4006.02,,80,3,2,1,Testing,,S3,2017.09.28,163,43,C,A,1,0,No Hint,Unknown,bl,bl,bl,1.283333,267.7667,4006,4,1,FALSE,0,3,5,4,4006.03,,80,3,2,1,Testing,CABD,Center EmbeddedS3,2017.09.28,164,43,A,B,1,0,No Hint,Unknown,bl,bl,bl,0.2666667,268.0333,4006,4,1,FALSE,0,3,4,2,4006.01,,80,3,2,1,Testing,,S3,2017.09.28,165,43,B,C,1,0,No Hint,Unknown,bl,bl,bl,0.25,268.2833,4006,4,1,FALSE,0,3,2,5,4006.02,,80,3,2,1,Testing,,S3,2017.09.28,166,43,D,D,1,0,No Hint,Unknown,1,0,bl,0.2166667,268.5,4006,4,1,FALSE,0,3,1,1,4006.04,,80,3,2,1,Testing,,S3,2017.09.28,167,44,C,A,1,0,No Hint,Unknown,bl,bl,bl,0.9166667,273.0833,4006,4,1,FALSE,0,3,4,3,4006.03,,80,3,2,1,Testing,CABD,Center EmbeddedS3,2017.09.28,168,44,A,B,1,0,No Hint,Unknown,bl,bl,bl,0.25,273.3333,4006,4,1,FALSE,0,3,3,2,4006.01,,80,3,2,1,Testing,,S3,2017.09.28,169,44,B,C,1,0,No Hint,Unknown,bl,bl,bl,0.2666667,273.6,4006,4,1,FALSE,0,3,2,4,4006.02,,80,3,2,1,Testing,,S3,2017.09.28,170,44,D,D,1,0,No Hint,Unknown,1,0,bl,0.2166667,273.8167,4006,4,1,FALSE,0,3,1,1,4006.04,,80,3,2,1,Testing,,S3,2017.09.28,179,47,C,A,1,0,No Hint,Unknown,bl,bl,bl,1.066667,290.0333,4006,4,1,FALSE,0,3,0,2,4006.03,,80,3,2,1,Testing,CABD,Center EmbeddedS3,2017.09.28,180,47,A,B,1,0,No Hint,Unknown,bl,bl,bl,0.2833333,290.3167,4006,4,1,FALSE,0,3,2,3,4006.01,,80,3,2,1,Testing,,S3,2017.09.28,181,47,B,C,1,0,No Hint,Unknown,bl,bl,bl,0.2666667,290.5833,4006,4,1,FALSE,0,3,3,0,4006.02,,80,3,2,1,Testing,,S3,2017.09.28,182,47,D,D,1,0,No Hint,Unknown,1,0,bl,0.2333333,290.8167,4006,4,1,FALSE,0,3,4,4,4006.04,,80,3,2,1,Testing,,S3,2017.09.28,195,51,C,A,1,0,No Hint,Unknown,bl,bl,bl,1.133333,312.2833,4006,4,1,FALSE,0,3,0,5,4006.03,,80,3,2,1,Testing,CABD,Center EmbeddedS3,2017.09.28,196,51,A,B,1,0,No Hint,Unknown,bl,bl,bl,0.2833333,312.5667,4006,4,1,FALSE,0,3,5,1,4006.01,,80,3,2,1,Testing,,S3,2017.09.28,197,51,B,C,1,0,No Hint,Unknown,bl,bl,bl,0.25,312.8167,4006,4,1,FALSE,0,3,1,0,4006.02,,80,3,2,1,Testing,,S3,2017.09.28,198,51,D,D,1,0,No Hint,Unknown,1,0,bl,0.25,313.0667,4006,4,1,FALSE,0,3,3,3,4006.04,,80,3,2,1,Testing,,S3,2017.09.28,199,52,C,A,1,0,No Hint,Unknown,bl,bl,bl,1,317.8833,4006,4,1,FALSE,0,3,0,2,4006.03,,80,3,2,1,Testing,CABD,Center EmbeddedS3,2017.09.28,200,52,A,B,1,0,No Hint,Unknown,bl,bl,bl,0.3,318.1833,4006,4,1,FALSE,0,3,2,4,4006.01,,80,3,2,1,Testing,,S3,2017.09.28,201,52,B,C,1,0,No Hint,Unknown,bl,bl,bl,0.4833333,318.6667,4006,4,1,FALSE,0,3,4,0,4006.02,,80,3,2,1,Testing,,S3,2017.09.28,202,52,D,D,1,0,No Hint,Unknown,1,0,bl,0.2,318.8667,4006,4,1,FALSE,0,3,3,3,4006.04,,80,3,2,1,Testing,,S3,2017.09.28,203,53,C,A,1,0,No Hint,Unknown,bl,bl,bl,1.283333,324.05,4006,4,1,FALSE,0,3,5,0,4006.03,,80,3,2,1,Testing,CABD,Center EmbeddedS3,2017.09.28,204,53,A,B,1,0,No Hint,Unknown,bl,bl,bl,0.3,324.35,4006,4,1,FALSE,0,3,0,1,4006.01,,80,3,2,1,Testing,,S3,2017.09.28,205,53,B,C,1,0,No Hint,Unknown,bl,bl,bl,0.2166667,324.5667,4006,4,1,FALSE,0,3,1,5,4006.02,,80,3,2,1,Testing,,S3,2017.09.28,206,53,D,D,1,0,No Hint,Unknown,1,0,bl,0.2833333,324.85,4006,4,1,FALSE,0,3,4,4,4006.04,,80,3,2,1,Testing,,S3,2017.09.28,207,54,C,A,1,0,No Hint,Unknown,bl,bl,bl,0.9666667,329.6,4006,4,1,FALSE,0,3,3,1,4006.03,,80,3,2,1,Testing,CABD,Center EmbeddedS3,2017.09.28,208,54,A,B,1,0,No Hint,Unknown,bl,bl,bl,0.25,329.85,4006,4,1,FALSE,0,3,1,0,4006.01,,80,3,2,1,Testing,,S3,2017.09.28,209,54,B,C,1,0,No Hint,Unknown,bl,bl,bl,0.2166667,330.0667,4006,4,1,FALSE,0,3,0,3,4006.02,,80,3,2,1,Testing,,S3,2017.09.28,210,54,D,D,1,0,No Hint,Unknown,1,0,bl,0.3166667,330.3833,4006,4,1,FALSE,0,3,5,5,4006.04,,80,3,2,1,Testing,,S3,2017.09.28,211,55,C,A,1,0,No Hint,Unknown,bl,bl,bl,0.9333333,335.0333,4006,4,1,FALSE,0,3,5,0,4006.03,,80,3,2,1,Testing,CABD,Center EmbeddedS3,2017.09.28,212,55,A,B,1,0,No Hint,Unknown,bl,bl,bl,0.3333333,335.3667,4006,4,1,FALSE,0,3,0,3,4006.01,,80,3,2,1,Testing,,S3,2017.09.28,213,55,B,C,1,0,No Hint,Unknown,bl,bl,bl,0.2333333,335.6,4006,4,1,FALSE,0,3,3,5,4006.02,,80,3,2,1,Testing,,S3,2017.09.28,214,55,D,D,1,0,No Hint,Unknown,1,0,bl,0.2333333,335.8333,4006,4,1,FALSE,0,3,1,1,4006.04,,80,3,2,1,Testing,,S3,2017.09.28,215,56,C,A,1,0,No Hint,Unknown,bl,bl,bl,0.95,340.65,4006,4,1,FALSE,0,3,1,4,4006.03,,80,3,2,1,Testing,CABD,Center EmbeddedS3,2017.09.28,216,56,A,B,1,0,No Hint,Unknown,bl,bl,bl,0.2666667,340.9167,4006,4,1,FALSE,0,3,4,5,4006.01,,80,3,2,1,Testing,,S3,2017.09.28,217,56,B,C,1,0,No Hint,Unknown,bl,bl,bl,0.2333333,341.15,4006,4,1,FALSE,0,3,5,1,4006.02,,80,3,2,1,Testing,,S3,2017.09.28,218,56,D,D,1,0,No Hint,Unknown,1,0,bl,0.3166667,341.4667,4006,4,1,FALSE,0,3,0,0,4006.04,,80,3,2,1,Testing,,S3,2017.09.28,223,58,C,A,1,0,No Hint,Unknown,bl,bl,bl,1.116667,351.7667,4006,4,1,FALSE,0,3,5,4,4006.03,,80,3,2,1,Testing,CABD,Center EmbeddedS3,2017.09.28,224,58,A,B,1,0,No Hint,Unknown,bl,bl,bl,0.25,352.0167,4006,4,1,FALSE,0,3,4,0,4006.01,,80,3,2,1,Testing,,S3,2017.09.28,225,58,B,C,1,0,No Hint,Unknown,bl,bl,bl,0.2333333,352.25,4006,4,1,FALSE,0,3,0,5,4006.02,,80,3,2,1,Testing,,S3,2017.09.28,226,58,D,D,1,0,No Hint,Unknown,1,0,bl,0.25,352.5,4006,4,1,FALSE,0,3,1,1,4006.04,,80,3,2,1,Testing,,S3,2017.09.28,227,59,C,A,1,0,No Hint,Unknown,bl,bl,bl,1.233333,357.3333,4006,4,1,FALSE,0,3,0,1,4006.03,,80,3,2,1,Testing,CABD,Center EmbeddedS3,2017.09.28,228,59,A,B,1,0,No Hint,Unknown,bl,bl,bl,0.2666667,357.6,4006,4,1,FALSE,0,3,1,2,4006.01,,80,3,2,1,Testing,,S3,2017.09.28,229,59,B,C,1,0,No Hint,Unknown,bl,bl,bl,0.2333333,357.8333,4006,4,1,FALSE,0,3,2,0,4006.02,,80,3,2,1,Testing,,S3,2017.09.28,230,59,D,D,1,0,No Hint,Unknown,1,0,bl,0.2833333,358.1167,4006,4,1,FALSE,0,3,3,3,4006.04,,80,3,2,1,Testing,,S3,2017.09.28,255,66,C,A,1,0,No Hint,Unknown,bl,bl,bl,1.433333,395.55,4006,4,1,FALSE,0,3,1,5,4006.03,,80,3,2,1,Testing,CABD,Center EmbeddedS3,2017.09.28,256,66,A,B,1,0,No Hint,Unknown,bl,bl,bl,0.2833333,395.8333,4006,4,1,FALSE,0,3,5,4,4006.01,,80,3,2,1,Testing,,S3,2017.09.28,257,66,B,C,1,0,No Hint,Unknown,bl,bl,bl,0.2333333,396.0667,4006,4,1,FALSE,0,3,4,1,4006.02,,80,3,2,1,Testing,,S3,2017.09.28,258,66,D,D,1,0,No Hint,Unknown,1,0,bl,0.2666667,396.3333,4006,4,1,FALSE,0,3,0,0,4006.04,,80,3,2,1,Testing,,S3,2017.09.28,295,76,C,A,1,0,No Hint,Unknown,bl,bl,bl,1.533333,451.5,4006,4,1,FALSE,0,3,5,0,4006.03,,80,3,2,1,Testing,CABD,Center EmbeddedS3,2017.09.28,296,76,A,B,1,0,No Hint,Unknown,bl,bl,bl,0.3,451.8,4006,4,1,FALSE,0,3,0,2,4006.01,,80,3,2,1,Testing,,S3,2017.09.28,297,76,B,C,1,0,No Hint,Unknown,bl,bl,bl,0.2833333,452.0833,4006,4,1,FALSE,0,3,2,5,4006.02,,80,3,2,1,Testing,,S3,2017.09.28,298,76,D,D,1,0,No Hint,Unknown,1,0,bl,0.25,452.3333,4006,4,1,FALSE,0,3,4,4,4006.04,,80,3,2,1,Testing,,S3,2017.09.28,299,77,C,A,1,0,No Hint,Unknown,bl,bl,bl,1.2,457.8,4006,4,1,FALSE,0,3,3,4,4006.03,,80,3,2,1,Testing,CABD,Center EmbeddedS3,2017.09.28,300,77,A,B,1,0,No Hint,Unknown,bl,bl,bl,0.2666667,458.0667,4006,4,1,FALSE,0,3,4,5,4006.01,,80,3,2,1,Testing,,S3,2017.09.28,301,77,B,C,1,0,No Hint,Unknown,bl,bl,bl,0.2333333,458.3,4006,4,1,FALSE,0,3,5,3,4006.02,,80,3,2,1,Testing,,S3,2017.09.28,302,77,D,D,1,0,No Hint,Unknown,1,0,bl,0.3,458.6,4006,4,1,FALSE,0,3,0,0,4006.04,,80,3,2,1,Testing,,S3,2017.09.28,303,78,C,A,1,0,No Hint,Unknown,bl,bl,bl,1.1,463.5167,4006,4,1,FALSE,0,3,1,0,4006.03,,80,3,2,1,Testing,CABD,Center EmbeddedS3,2017.09.28,304,78,A,B,1,0,No Hint,Unknown,bl,bl,bl,0.2666667,463.7833,4006,4,1,FALSE,0,3,0,3,4006.01,,80,3,2,1,Testing,,S3,2017.09.28,305,78,B,C,1,0,No Hint,Unknown,bl,bl,bl,0.2333333,464.0167,4006,4,1,FALSE,0,3,3,1,4006.02,,80,3,2,1,Testing,,S3,2017.09.28,306,78,D,D,1,0,No Hint,Unknown,1,0,bl,0.2666667,464.2833,4006,4,1,FALSE,0,3,4,4,4006.04,,80,3,2,1,Testing,,S3,2017.09.28,311,80,C,A,1,0,No Hint,Unknown,bl,bl,bl,1.033333,474.45,4006,4,1,FALSE,0,3,2,0,4006.03,,80,3,2,1,Testing,CABD,Center EmbeddedS3,2017.09.28,312,80,A,B,1,0,No Hint,Unknown,bl,bl,bl,0.2666667,474.7167,4006,4,1,FALSE,0,3,0,1,4006.01,,80,3,2,1,Testing,,S3,2017.09.28,313,80,B,C,1,0,No Hint,Unknown,bl,bl,bl,0.25,474.9667,4006,4,1,FALSE,0,3,1,2,4006.02,,80,3,2,1,Testing,,S3,2017.09.28,314,80,D,D,1,0,No Hint,Unknown,1,0,bl,0.2166667,475.1833,4006,4,1,FALSE,0,3,3,3,4006.04,,80,3,2,1,Testing,,S6,2017.10.02,5,2,A,A,1,0,No Hint,Unknown,bl,bl,bl,2.016667,21.7,4006,4,1,FALSE,0,3,2,2,4006.01,,80,3,2,1,Testing,ACDB,Center EmbeddedS6,2017.10.02,6,2,C,B,1,0,No Hint,Unknown,bl,bl,bl,0.2666667,21.96667,4006,4,1,FALSE,0,3,1,5,4006.03,,80,3,2,1,Testing,,S6,2017.10.02,7,2,D,C,1,0,No Hint,Unknown,bl,bl,bl,0.3166667,22.28333,4006,4,1,FALSE,0,3,3,1,4006.04,,80,3,2,1,Testing,,S6,2017.10.02,8,2,B,D,1,0,No Hint,Unknown,1,0,bl,0.3,22.58333,4006,4,1,FALSE,0,3,5,3,4006.02,,80,3,2,1,Testing,,S6,2017.10.02,17,5,A,A,1,0,No Hint,Unknown,bl,bl,bl,3.283333,43.96667,4006,4,1,FALSE,0,3,1,1,4006.01,,80,3,2,1,Testing,ACDB,Center EmbeddedS6,2017.10.02,18,5,C,B,1,0,No Hint,Unknown,bl,bl,bl,2.016667,45.98333,4006,4,1,FALSE,0,3,5,3,4006.03,,80,3,2,1,Testing,,S6,2017.10.02,19,5,D,C,1,0,No Hint,Unknown,bl,bl,bl,0.4666667,46.45,4006,4,1,FALSE,0,3,0,5,4006.04,,80,3,2,1,Testing,,S6,2017.10.02,20,5,B,D,1,0,No Hint,Unknown,1,0,bl,0.3333333,46.78333,4006,4,1,FALSE,0,3,3,0,4006.02,,80,3,2,1,Testing,,S6,2017.10.02,21,6,A,A,1,0,No Hint,Unknown,bl,bl,bl,1.216667,51.88333,4006,4,1,FALSE,0,3,4,4,4006.01,,80,3,2,1,Testing,ACDB,Center EmbeddedS6,2017.10.02,22,6,C,B,1,0,No Hint,Unknown,bl,bl,bl,0.2166667,52.1,4006,4,1,FALSE,0,3,5,2,4006.03,,80,3,2,1,Testing,,S6,2017.10.02,23,6,D,C,1,0,No Hint,Unknown,bl,bl,bl,0.35,52.45,4006,4,1,FALSE,0,3,0,5,4006.04,,80,3,2,1,Testing,,S6,2017.10.02,24,6,B,D,1,0,No Hint,Unknown,1,0,bl,0.2833333,52.73333,4006,4,1,FALSE,0,3,2,0,4006.02,,80,3,2,1,Testing,,S6,2017.10.02,29,8,A,A,1,0,No Hint,Unknown,bl,bl,bl,2.1,65.25,4006,4,1,FALSE,0,3,4,4,4006.01,,80,3,2,1,Testing,ACDB,Center EmbeddedS6,2017.10.02,30,8,C,B,1,0,No Hint,Unknown,bl,bl,bl,0.2333333,65.48333,4006,4,1,FALSE,0,3,3,0,4006.03,,80,3,2,1,Testing,,S6,2017.10.02,31,8,D,C,1,0,No Hint,Unknown,bl,bl,bl,0.25,65.73333,4006,4,1,FALSE,0,3,5,3,4006.04,,80,3,2,1,Testing,,S6,2017.10.02,32,8,B,D,1,0,No Hint,Unknown,1,0,bl,0.3333333,66.06667,4006,4,1,FALSE,0,3,0,5,4006.02,,80,3,2,1,Testing,,S6,2017.10.02,41,11,A,A,1,0,No Hint,Unknown,bl,bl,bl,2.733333,87.23333,4006,4,1,FALSE,0,3,3,3,4006.01,,80,3,2,1,Testing,ACDB,Center EmbeddedS6,2017.10.02,42,11,C,B,1,0,No Hint,Unknown,bl,bl,bl,0.1666667,87.4,4006,4,1,FALSE,0,3,1,0,4006.03,,80,3,2,1,Testing,,S6,2017.10.02,43,11,D,C,1,0,No Hint,Unknown,bl,bl,bl,0.2333333,87.63333,4006,4,1,FALSE,0,3,2,1,4006.04,,80,3,2,1,Testing,,S6,2017.10.02,44,11,B,D,1,0,No Hint,Unknown,1,0,bl,0.3,87.93333,4006,4,1,FALSE,0,3,0,2,4006.02,,80,3,2,1,Testing,,S6,2017.10.02,52,14,A,A,1,0,No Hint,Unknown,bl,bl,bl,2.05,110.55,4006,4,1,FALSE,0,3,0,0,4006.01,,80,3,2,1,Testing,ACDB,Center EmbeddedS6,2017.10.02,53,14,C,B,1,0,No Hint,Unknown,bl,bl,bl,0.1666667,110.7167,4006,4,1,FALSE,0,3,3,1,4006.03,,80,3,2,1,Testing,,S6,2017.10.02,54,14,D,C,1,0,No Hint,Unknown,bl,bl,bl,0.25,110.9667,4006,4,1,FALSE,0,3,4,3,4006.04,,80,3,2,1,Testing,,S6,2017.10.02,55,14,B,D,1,0,No Hint,Unknown,1,0,bl,0.2333333,111.2,4006,4,1,FALSE,0,3,1,4,4006.02,,80,3,2,1,Testing,,S6,2017.10.02,56,15,A,A,1,0,No Hint,Unknown,bl,bl,bl,2,117.2667,4006,4,1,FALSE,0,3,4,4,4006.01,,80,3,2,1,Testing,ACDB,Center EmbeddedS6,2017.10.02,57,15,C,B,1,0,No Hint,Unknown,bl,bl,bl,0.2166667,117.4667,4006,4,1,FALSE,0,3,3,1,4006.03,,80,3,2,1,Testing,,S6,2017.10.02,58,15,D,C,1,0,No Hint,Unknown,bl,bl,bl,0.3833333,117.85,4006,4,1,FALSE,0,3,5,3,4006.04,,80,3,2,1,Testing,,S6,2017.10.02,59,15,B,D,1,0,No Hint,Unknown,1,0,bl,0.3333333,118.1833,4006,4,1,FALSE,0,3,1,5,4006.02,,80,3,2,1,Testing,,S6,2017.10.02,60,16,A,A,1,0,No Hint,Unknown,bl,bl,bl,1.533333,123.7833,4006,4,1,FALSE,0,3,4,4,4006.01,,80,3,2,1,Testing,ACDB,Center EmbeddedS6,2017.10.02,61,16,C,B,1,0,No Hint,Unknown,bl,bl,bl,0.1666667,123.95,4006,4,1,FALSE,0,3,5,1,4006.03,,80,3,2,1,Testing,,S6,2017.10.02,62,16,D,C,1,0,No Hint,Unknown,bl,bl,bl,0.2833333,124.2333,4006,4,1,FALSE,0,3,3,5,4006.04,,80,3,2,1,Testing,,S6,2017.10.02,63,16,B,D,1,0,No Hint,Unknown,1,0,bl,0.2166667,124.45,4006,4,1,FALSE,0,3,1,3,4006.02,,80,3,2,1,Testing,,S6,2017.10.02,64,17,A,A,1,0,No Hint,Unknown,bl,bl,bl,1.716667,130.4167,4006,4,1,FALSE,0,3,3,3,4006.01,,80,3,2,1,Testing,ACDB,Center EmbeddedS6,2017.10.02,65,17,C,B,1,0,No Hint,Unknown,bl,bl,bl,0.1666667,130.5833,4006,4,1,FALSE,0,3,1,5,4006.03,,80,3,2,1,Testing,,S6,2017.10.02,66,17,D,C,1,0,No Hint,Unknown,bl,bl,bl,0.3166667,130.9,4006,4,1,FALSE,0,3,0,1,4006.04,,80,3,2,1,Testing,,S6,2017.10.02,67,17,B,D,1,0,No Hint,Unknown,1,0,bl,0.3333333,131.2333,4006,4,1,FALSE,0,3,5,0,4006.02,,80,3,2,1,Testing,,S6,2017.10.02,68,18,A,A,1,0,No Hint,Unknown,bl,bl,bl,2.15,137.45,4006,4,1,FALSE,0,3,1,1,4006.01,,80,3,2,1,Testing,ACDB,Center EmbeddedS6,2017.10.02,69,18,C,B,1,0,No Hint,Unknown,bl,bl,bl,0.1666667,137.6167,4006,4,1,FALSE,0,3,4,5,4006.03,,80,3,2,1,Testing,,S6,2017.10.02,70,18,D,C,1,0,No Hint,Unknown,bl,bl,bl,0.2833333,137.9,4006,4,1,FALSE,0,3,3,4,4006.04,,80,3,2,1,Testing,,S6,2017.10.02,71,18,B,D,1,0,No Hint,Unknown,1,0,bl,0.25,138.15,4006,4,1,FALSE,0,3,5,3,4006.02,,80,3,2,1,Testing,,S6,2017.10.02,76,20,A,A,1,0,No Hint,Unknown,bl,bl,bl,1.65,150.1167,4006,4,1,FALSE,0,3,2,2,4006.01,,80,3,2,1,Testing,ACDB,Center EmbeddedS6,2017.10.02,77,20,C,B,1,0,No Hint,Unknown,bl,bl,bl,0.1666667,150.2833,4006,4,1,FALSE,0,3,5,4,4006.03,,80,3,2,1,Testing,,S6,2017.10.02,78,20,D,C,1,0,No Hint,Unknown,bl,bl,bl,0.3833333,150.6667,4006,4,1,FALSE,0,3,0,5,4006.04,,80,3,2,1,Testing,,S6,2017.10.02,79,20,B,D,1,0,No Hint,Unknown,1,0,bl,0.25,150.9167,4006,4,1,FALSE,0,3,4,0,4006.02,,80,3,2,1,Testing,,S6,2017.10.02,80,21,A,A,1,0,No Hint,Unknown,bl,bl,bl,2.366667,157.2833,4006,4,1,FALSE,0,3,0,0,4006.01,,80,3,2,1,Testing,ACDB,Center EmbeddedS6,2017.10.02,81,21,C,B,1,0,No Hint,Unknown,bl,bl,bl,0.2833333,157.5667,4006,4,1,FALSE,0,3,2,3,4006.03,,80,3,2,1,Testing,,S6,2017.10.02,82,21,D,C,1,0,No Hint,Unknown,bl,bl,bl,0.2333333,157.8,4006,4,1,FALSE,0,3,4,2,4006.04,,80,3,2,1,Testing,,S6,2017.10.02,83,21,B,D,1,0,No Hint,Unknown,1,0,bl,0.25,158.05,4006,4,1,FALSE,0,3,3,4,4006.02,,80,3,2,1,Testing,,S6,2017.10.02,90,24,A,A,1,0,No Hint,Unknown,bl,bl,bl,2.866667,181.1833,4006,4,1,FALSE,0,3,4,4,4006.01,,80,3,2,1,Testing,ACDB,Center EmbeddedS6,2017.10.02,91,24,C,B,1,0,No Hint,Unknown,bl,bl,bl,0.1666667,181.35,4006,4,1,FALSE,0,3,1,3,4006.03,,80,3,2,1,Testing,,S6,2017.10.02,92,24,D,C,1,0,No Hint,Unknown,bl,bl,bl,0.2166667,181.5667,4006,4,1,FALSE,0,3,2,1,4006.04,,80,3,2,1,Testing,,S6,2017.10.02,93,24,B,D,1,0,No Hint,Unknown,1,0,bl,0.3166667,181.8833,4006,4,1,FALSE,0,3,3,2,4006.02,,80,3,2,1,Testing,,S6,2017.10.02,102,27,A,A,1,0,No Hint,Unknown,bl,bl,bl,3.133333,202.9833,4006,4,1,FALSE,0,3,5,5,4006.01,,80,3,2,1,Testing,ACDB,Center EmbeddedS6,2017.10.02,103,27,C,B,1,0,No Hint,Unknown,bl,bl,bl,0.2,203.1833,4006,4,1,FALSE,0,3,2,4,4006.03,,80,3,2,1,Testing,,S6,2017.10.02,104,27,D,C,1,0,No Hint,Unknown,bl,bl,bl,0.3833333,203.5667,4006,4,1,FALSE,0,3,3,2,4006.04,,80,3,2,1,Testing,,S6,2017.10.02,105,27,B,D,1,0,No Hint,Unknown,1,0,bl,0.2333333,203.8,4006,4,1,FALSE,0,3,4,3,4006.02,,80,3,2,1,Testing,,S6,2017.10.02,110,29,A,A,1,0,No Hint,Unknown,bl,bl,bl,1.7,216.3333,4006,4,1,FALSE,0,3,4,4,4006.01,,80,3,2,1,Testing,ACDB,Center EmbeddedS6,2017.10.02,111,29,C,B,1,0,No Hint,Unknown,bl,bl,bl,0.2,216.5333,4006,4,1,FALSE,0,3,1,3,4006.03,,80,3,2,1,Testing,,S6,2017.10.02,112,29,D,C,1,0,No Hint,Unknown,bl,bl,bl,0.2666667,216.8,4006,4,1,FALSE,0,3,0,1,4006.04,,80,3,2,1,Testing,,S6,2017.10.02,113,29,B,D,1,0,No Hint,Unknown,1,0,bl,0.2666667,217.0667,4006,4,1,FALSE,0,3,3,0,4006.02,,80,3,2,1,Testing,,S6,2017.10.02,114,30,A,A,1,0,No Hint,Unknown,bl,bl,bl,1.583333,222.5333,4006,4,1,FALSE,0,3,5,5,4006.01,,80,3,2,1,Testing,ACDB,Center EmbeddedS6,2017.10.02,115,30,C,B,1,0,No Hint,Unknown,bl,bl,bl,0.25,222.7833,4006,4,1,FALSE,0,3,1,0,4006.03,,80,3,2,1,Testing,,S6,2017.10.02,116,30,D,C,1,0,No Hint,Unknown,bl,bl,bl,0.2,222.9833,4006,4,1,FALSE,0,3,4,1,4006.04,,80,3,2,1,Testing,,S6,2017.10.02,117,30,B,D,1,0,No Hint,Unknown,1,0,bl,0.35,223.3333,4006,4,1,FALSE,0,3,0,4,4006.02,,80,3,2,1,Testing,,S6,2017.10.02,118,31,A,A,1,0,No Hint,Unknown,bl,bl,bl,1.983333,229.2667,4006,4,1,FALSE,0,3,2,2,4006.01,,80,3,2,1,Testing,ACDB,Center EmbeddedS6,2017.10.02,119,31,C,B,1,0,No Hint,Unknown,bl,bl,bl,0.1666667,229.4333,4006,4,1,FALSE,0,3,5,3,4006.03,,80,3,2,1,Testing,,S6,2017.10.02,120,31,D,C,1,0,No Hint,Unknown,bl,bl,bl,0.3,229.7333,4006,4,1,FALSE,0,3,1,5,4006.04,,80,3,2,1,Testing,,S6,2017.10.02,121,31,B,D,1,0,No Hint,Unknown,1,0,bl,0.2666667,230,4006,4,1,FALSE,0,3,3,1,4006.02,,80,3,2,1,Testing,,S6,2017.10.02,130,34,A,A,1,0,No Hint,Unknown,bl,bl,bl,2.866667,249.3667,4006,4,1,FALSE,0,3,0,0,4006.01,,80,3,2,1,Testing,ACDB,Center EmbeddedS6,2017.10.02,131,34,C,B,1,0,No Hint,Unknown,bl,bl,bl,0.3,249.6667,4006,4,1,FALSE,0,3,4,2,4006.03,,80,3,2,1,Testing,,S6,2017.10.02,132,34,D,C,1,0,No Hint,Unknown,bl,bl,bl,0.2,249.8667,4006,4,1,FALSE,0,3,3,4,4006.04,,80,3,2,1,Testing,,S6,2017.10.02,133,34,B,D,1,0,No Hint,Unknown,1,0,bl,0.35,250.2167,4006,4,1,FALSE,0,3,2,3,4006.02,,80,3,2,1,Testing,,S6,2017.10.02,138,36,A,A,1,0,No Hint,Unknown,bl,bl,bl,2,263.05,4006,4,1,FALSE,0,3,1,1,4006.01,,80,3,2,1,Testing,ACDB,Center EmbeddedS6,2017.10.02,139,36,C,B,1,0,No Hint,Unknown,bl,bl,bl,0.2166667,263.2667,4006,4,1,FALSE,0,3,0,4,4006.03,,80,3,2,1,Testing,,S6,2017.10.02,140,36,D,C,1,0,No Hint,Unknown,bl,bl,bl,0.25,263.5167,4006,4,1,FALSE,0,3,2,0,4006.04,,80,3,2,1,Testing,,S6,2017.10.02,141,36,B,D,1,0,No Hint,Unknown,1,0,bl,0.2833333,263.8,4006,4,1,FALSE,0,3,4,2,4006.02,,80,3,2,1,Testing,,S6,2017.10.02,142,37,A,A,1,0,No Hint,Unknown,bl,bl,bl,1.35,268.9833,4006,4,1,FALSE,0,3,3,3,4006.01,,80,3,2,1,Testing,ACDB,Center EmbeddedS6,2017.10.02,143,37,C,B,1,0,No Hint,Unknown,bl,bl,bl,0.2333333,269.2167,4006,4,1,FALSE,0,3,2,0,4006.03,,80,3,2,1,Testing,,S6,2017.10.02,144,37,D,C,1,0,No Hint,Unknown,bl,bl,bl,0.2166667,269.4333,4006,4,1,FALSE,0,3,5,2,4006.04,,80,3,2,1,Testing,,S6,2017.10.02,145,37,B,D,1,0,No Hint,Unknown,1,0,bl,0.4,269.8333,4006,4,1,FALSE,0,3,0,5,4006.02,,80,3,2,1,Testing,,S6,2017.10.02,157,41,A,A,1,0,No Hint,Unknown,bl,bl,bl,2,297.05,4006,4,1,FALSE,0,3,4,4,4006.01,,80,3,2,1,Testing,ACDB,Center EmbeddedS6,2017.10.02,158,41,C,B,1,0,No Hint,Unknown,bl,bl,bl,0.1666667,297.2167,4006,4,1,FALSE,0,3,3,0,4006.03,,80,3,2,1,Testing,,S6,2017.10.02,159,41,D,C,1,0,No Hint,Unknown,bl,bl,bl,0.2166667,297.4333,4006,4,1,FALSE,0,3,1,3,4006.04,,80,3,2,1,Testing,,S6,2017.10.02,160,41,B,D,1,0,No Hint,Unknown,1,0,bl,0.2333333,297.6667,4006,4,1,FALSE,0,3,0,1,4006.02,,80,3,2,1,Testing,,S6,2017.10.02,161,42,A,A,1,0,No Hint,Unknown,bl,bl,bl,2.366667,303.9333,4006,4,1,FALSE,0,3,5,5,4006.01,,80,3,2,1,Testing,ACDB,Center EmbeddedS6,2017.10.02,162,42,C,B,1,0,No Hint,Unknown,bl,bl,bl,0.2166667,304.15,4006,4,1,FALSE,0,3,3,4,4006.03,,80,3,2,1,Testing,,S6,2017.10.02,163,42,D,C,1,0,No Hint,Unknown,bl,bl,bl,0.2833333,304.4333,4006,4,1,FALSE,0,3,2,3,4006.04,,80,3,2,1,Testing,,S6,2017.10.02,164,42,B,D,1,0,No Hint,Unknown,1,0,bl,0.2166667,304.65,4006,4,1,FALSE,0,3,4,2,4006.02,,80,3,2,1,Testing,,S6,2017.10.02,167,44,A,A,1,0,No Hint,Unknown,bl,bl,bl,2.866667,319.8833,4006,4,1,FALSE,0,3,0,0,4006.01,,80,3,2,1,Testing,ACDB,Center EmbeddedS6,2017.10.02,168,44,C,B,1,0,No Hint,Unknown,bl,bl,bl,0.5166667,320.4,4006,4,1,FALSE,0,3,5,4,4006.03,,80,3,2,1,Testing,,S6,2017.10.02,169,44,D,C,1,0,No Hint,Unknown,bl,bl,bl,0.2666667,320.6667,4006,4,1,FALSE,0,3,2,5,4006.04,,80,3,2,1,Testing,,S6,2017.10.02,170,44,B,D,1,0,No Hint,Unknown,1,0,bl,0.2833333,320.95,4006,4,1,FALSE,0,3,4,2,4006.02,,80,3,2,1,Testing,,S6,2017.10.02,179,47,A,A,1,0,No Hint,Unknown,bl,bl,bl,1.533333,338.4333,4006,4,1,FALSE,0,3,5,5,4006.01,,80,3,2,1,Testing,ACDB,Center EmbeddedS6,2017.10.02,180,47,C,B,1,0,No Hint,Unknown,bl,bl,bl,0.1833333,338.6167,4006,4,1,FALSE,0,3,1,4,4006.03,,80,3,2,1,Testing,,S6,2017.10.02,181,47,D,C,1,0,No Hint,Unknown,bl,bl,bl,0.3,338.9167,4006,4,1,FALSE,0,3,0,1,4006.04,,80,3,2,1,Testing,,S6,2017.10.02,182,47,B,D,1,0,No Hint,Unknown,1,0,bl,0.2833333,339.2,4006,4,1,FALSE,0,3,4,0,4006.02,,80,3,2,1,Testing,,S6,2017.10.02,195,51,A,A,1,0,No Hint,Unknown,bl,bl,bl,2.1,366.9833,4006,4,1,FALSE,0,3,2,2,4006.01,,80,3,2,1,Testing,ACDB,Center EmbeddedS6,2017.10.02,196,51,C,B,1,0,No Hint,Unknown,bl,bl,bl,0.3,367.2833,4006,4,1,FALSE,0,3,0,3,4006.03,,80,3,2,1,Testing,,S6,2017.10.02,197,51,D,C,1,0,No Hint,Unknown,bl,bl,bl,0.1666667,367.45,4006,4,1,FALSE,0,3,1,0,4006.04,,80,3,2,1,Testing,,S6,2017.10.02,198,51,B,D,1,0,No Hint,Unknown,1,0,bl,0.2,367.65,4006,4,1,FALSE,0,3,3,1,4006.02,,80,3,2,1,Testing,,S6,2017.10.02,199,52,A,A,1,0,No Hint,Unknown,bl,bl,bl,2.083333,373.4667,4006,4,1,FALSE,0,3,3,3,4006.01,,80,3,2,1,Testing,ACDB,Center EmbeddedS6,2017.10.02,200,52,C,B,1,0,No Hint,Unknown,bl,bl,bl,0.1666667,373.6333,4006,4,1,FALSE,0,3,4,0,4006.03,,80,3,2,1,Testing,,S6,2017.10.02,201,52,D,C,1,0,No Hint,Unknown,bl,bl,bl,0.2833333,373.9167,4006,4,1,FALSE,0,3,2,4,4006.04,,80,3,2,1,Testing,,S6,2017.10.02,202,52,B,D,1,0,No Hint,Unknown,1,0,bl,0.3,374.2167,4006,4,1,FALSE,0,3,0,2,4006.02,,80,3,2,1,Testing,,S6,2017.10.02,207,54,A,A,1,0,No Hint,Unknown,bl,bl,bl,2.2,386.15,4006,4,1,FALSE,0,3,4,4,4006.01,,80,3,2,1,Testing,ACDB,Center EmbeddedS6,2017.10.02,208,54,C,B,1,0,No Hint,Unknown,bl,bl,bl,0.2833333,386.4333,4006,4,1,FALSE,0,3,0,1,4006.03,,80,3,2,1,Testing,,S6,2017.10.02,209,54,D,C,1,0,No Hint,Unknown,bl,bl,bl,0.1666667,386.6,4006,4,1,FALSE,0,3,3,0,4006.04,,80,3,2,1,Testing,,S6,2017.10.02,210,54,B,D,1,0,No Hint,Unknown,1,0,bl,0.2166667,386.8167,4006,4,1,FALSE,0,3,1,3,4006.02,,80,3,2,1,Testing,,S6,2017.10.02,215,56,A,A,1,0,No Hint,Unknown,bl,bl,bl,1.833333,399.9833,4006,4,1,FALSE,0,3,5,5,4006.01,,80,3,2,1,Testing,ACDB,Center EmbeddedS6,2017.10.02,216,56,C,B,1,0,No Hint,Unknown,bl,bl,bl,0.2333333,400.2167,4006,4,1,FALSE,0,3,0,3,4006.03,,80,3,2,1,Testing,,S6,2017.10.02,217,56,D,C,1,0,No Hint,Unknown,bl,bl,bl,0.25,400.4667,4006,4,1,FALSE,0,3,2,0,4006.04,,80,3,2,1,Testing,,S6,2017.10.02,218,56,B,D,1,0,No Hint,Unknown,1,0,bl,0.2166667,400.6833,4006,4,1,FALSE,0,3,3,2,4006.02,,80,3,2,1,Testing,,S6,2017.10.02,238,62,A,A,1,0,No Hint,Unknown,bl,bl,bl,1.8,441.1,4006,4,1,FALSE,0,3,3,3,4006.01,,80,3,2,1,Testing,ACDB,Center EmbeddedS6,2017.10.02,239,62,C,B,1,0,No Hint,Unknown,bl,bl,bl,0.1833333,441.2833,4006,4,1,FALSE,0,3,1,2,4006.03,,80,3,2,1,Testing,,S6,2017.10.02,240,62,D,C,1,0,No Hint,Unknown,bl,bl,bl,0.2333333,441.5167,4006,4,1,FALSE,0,3,5,1,4006.04,,80,3,2,1,Testing,,S6,2017.10.02,241,62,B,D,1,0,No Hint,Unknown,1,0,bl,0.2666667,441.7833,4006,4,1,FALSE,0,3,2,5,4006.02,,80,3,2,1,Testing,,S6,2017.10.02,242,63,A,A,1,0,No Hint,Unknown,bl,bl,bl,1.816667,447.2667,4006,4,1,FALSE,0,3,5,5,4006.01,,80,3,2,1,Testing,ACDB,Center EmbeddedS6,2017.10.02,243,63,C,B,1,0,No Hint,Unknown,bl,bl,bl,0.1833333,447.45,4006,4,1,FALSE,0,3,2,0,4006.03,,80,3,2,1,Testing,,S6,2017.10.02,244,63,D,C,1,0,No Hint,Unknown,bl,bl,bl,0.3166667,447.7667,4006,4,1,FALSE,0,3,3,2,4006.04,,80,3,2,1,Testing,,S6,2017.10.02,245,63,B,D,1,0,No Hint,Unknown,1,0,bl,0.2666667,448.0333,4006,4,1,FALSE,0,3,0,3,4006.02,,80,3,2,1,Testing,,S6,2017.10.02,246,64,A,A,1,0,No Hint,Unknown,bl,bl,bl,1.5,453.3833,4006,4,1,FALSE,0,3,2,2,4006.01,,80,3,2,1,Testing,ACDB,Center EmbeddedS6,2017.10.02,247,64,C,B,1,0,No Hint,Unknown,bl,bl,bl,0.1833333,453.5667,4006,4,1,FALSE,0,3,4,0,4006.03,,80,3,2,1,Testing,,S6,2017.10.02,248,64,D,C,1,0,No Hint,Unknown,bl,bl,bl,0.6166667,454.1833,4006,4,1,FALSE,0,3,1,4,4006.04,,80,3,2,1,Testing,,S6,2017.10.02,249,64,B,D,1,0,No Hint,Unknown,1,0,bl,0.3333333,454.5167,4006,4,1,FALSE,0,3,0,1,4006.02,,80,3,2,1,Testing,,S6,2017.10.02,250,65,B,A,1,0,No Hint,Unknown,bl,bl,bl,1.3,459.7167,4006,4,1,FALSE,0,3,5,0,4006.02,,80,3,2,1,Testing,BCDA,ALL OTHERS6,2017.10.02,251,65,C,B,1,0,No Hint,Unknown,bl,bl,bl,0.2833333,460,4006,4,1,FALSE,0,3,3,5,4006.03,,80,3,2,1,Testing,,S6,2017.10.02,252,65,D,C,1,0,No Hint,Unknown,bl,bl,bl,0.25,460.25,4006,4,1,FALSE,0,3,4,3,4006.04,,80,3,2,1,Testing,,S6,2017.10.02,253,65,A,D,1,0,No Hint,Unknown,1,0,bl,0.3333333,460.5833,4006,4,1,FALSE,0,3,0,4,4006.01,,80,3,2,1,Testing,,S6,2017.10.02,254,66,A,A,1,0,No Hint,Unknown,bl,bl,bl,1.283333,465.4667,4006,4,1,FALSE,0,3,2,2,4006.01,,80,3,2,1,Testing,ACDB,Center EmbeddedS6,2017.10.02,255,66,C,B,1,0,No Hint,Unknown,bl,bl,bl,0.3166667,465.7833,4006,4,1,FALSE,0,3,3,1,4006.03,,80,3,2,1,Testing,,S6,2017.10.02,256,66,D,C,1,0,No Hint,Unknown,bl,bl,bl,0.1833333,465.9667,4006,4,1,FALSE,0,3,5,3,4006.04,,80,3,2,1,Testing,,S6,2017.10.02,257,66,B,D,1,0,No Hint,Unknown,1,0,bl,0.25,466.2167,4006,4,1,FALSE,0,3,1,5,4006.02,,80,3,2,1,Testing,,S6,2017.10.02,258,67,A,A,1,0,No Hint,Unknown,bl,bl,bl,2.6,472.3833,4006,4,1,FALSE,0,3,0,0,4006.01,,80,3,2,1,Testing,ACDB,Center EmbeddedS6,2017.10.02,259,67,C,B,1,0,No Hint,Unknown,bl,bl,bl,0.2,472.5833,4006,4,1,FALSE,0,3,5,3,4006.03,,80,3,2,1,Testing,,S6,2017.10.02,260,67,D,C,1,0,No Hint,Unknown,bl,bl,bl,0.2333333,472.8167,4006,4,1,FALSE,0,3,1,5,4006.04,,80,3,2,1,Testing,,S6,2017.10.02,261,67,B,D,1,0,No Hint,Unknown,1,0,bl,0.6,473.4167,4006,4,1,FALSE,0,3,3,1,4006.02,,80,3,2,1,Testing,,S6,2017.10.02,266,69,A,A,1,0,No Hint,Unknown,bl,bl,bl,1.75,485,4006,4,1,FALSE,0,3,4,4,4006.01,,80,3,2,1,Testing,ACDB,Center EmbeddedS6,2017.10.02,267,69,C,B,1,0,No Hint,Unknown,bl,bl,bl,0.1833333,485.1833,4006,4,1,FALSE,0,3,3,1,4006.03,,80,3,2,1,Testing,,S6,2017.10.02,268,69,D,C,1,0,No Hint,Unknown,bl,bl,bl,0.2833333,485.4667,4006,4,1,FALSE,0,3,2,3,4006.04,,80,3,2,1,Testing,,S6,2017.10.02,269,69,B,D,1,0,No Hint,Unknown,1,0,bl,0.2,485.6667,4006,4,1,FALSE,0,3,1,2,4006.02,,80,3,2,1,Testing,,S6,2017.10.02,282,73,A,A,1,0,No Hint,Unknown,bl,bl,bl,1.75,513.1167,4006,4,1,FALSE,0,3,0,0,4006.01,,80,3,2,1,Testing,ACDB,Center EmbeddedS6,2017.10.02,283,73,C,B,1,0,No Hint,Unknown,bl,bl,bl,0.25,513.3667,4006,4,1,FALSE,0,3,2,3,4006.03,,80,3,2,1,Testing,,S6,2017.10.02,284,73,D,C,1,0,No Hint,Unknown,bl,bl,bl,0.1833333,513.55,4006,4,1,FALSE,0,3,1,2,4006.04,,80,3,2,1,Testing,,S6,2017.10.02,285,73,B,D,1,0,No Hint,Unknown,1,0,bl,0.2833333,513.8333,4006,4,1,FALSE,0,3,3,1,4006.02,,80,3,2,1,Testing,,S6,2017.10.02,286,74,A,A,1,0,No Hint,Unknown,bl,bl,bl,3.75,521.4667,4006,4,1,FALSE,0,3,2,2,4006.01,,80,3,2,1,Testing,ACDB,Center EmbeddedS6,2017.10.02,287,74,C,B,1,0,No Hint,Unknown,bl,bl,bl,0.1666667,521.6333,4006,4,1,FALSE,0,3,4,5,4006.03,,80,3,2,1,Testing,,S6,2017.10.02,288,74,D,C,1,0,No Hint,Unknown,bl,bl,bl,0.2166667,521.85,4006,4,1,FALSE,0,3,1,4,4006.04,,80,3,2,1,Testing,,S6,2017.10.02,289,74,B,D,1,0,No Hint,Unknown,1,0,bl,0.2833333,522.1333,4006,4,1,FALSE,0,3,5,1,4006.02,,80,3,2,1,Testing,,S6,2017.10.02,290,75,A,A,1,0,No Hint,Unknown,bl,bl,bl,1.75,527.9167,4006,4,1,FALSE,0,3,1,1,4006.01,,80,3,2,1,Testing,ACDB,Center EmbeddedS6,2017.10.02,291,75,C,B,1,0,No Hint,Unknown,bl,bl,bl,0.1833333,528.1,4006,4,1,FALSE,0,3,3,0,4006.03,,80,3,2,1,Testing,,S6,2017.10.02,292,75,D,C,1,0,No Hint,Unknown,bl,bl,bl,0.2,528.3,4006,4,1,FALSE,0,3,5,3,4006.04,,80,3,2,1,Testing,,S6,2017.10.02,293,75,B,D,1,0,No Hint,Unknown,1,0,bl,0.25,528.55,4006,4,1,FALSE,0,3,0,5,4006.02,,80,3,2,1,Testing,,S6,2017.10.02,302,78,A,A,1,0,No Hint,Unknown,bl,bl,bl,2.083333,548.9833,4006,4,1,FALSE,0,3,1,1,4006.01,,80,3,2,1,Testing,ACDB,Center EmbeddedS6,2017.10.02,303,78,C,B,1,0,No Hint,Unknown,bl,bl,bl,0.1666667,549.15,4006,4,1,FALSE,0,3,4,3,4006.03,,80,3,2,1,Testing,,S6,2017.10.02,304,78,D,C,1,0,No Hint,Unknown,bl,bl,bl,0.2,549.35,4006,4,1,FALSE,0,3,5,4,4006.04,,80,3,2,1,Testing,,S6,2017.10.02,305,78,B,D,1,0,No Hint,Unknown,1,0,bl,0.3333333,549.6833,4006,4,1,FALSE,0,3,3,5,4006.02,,80,3,2,1,Testing,,S6,2017.10.02,307,80,A,A,1,0,No Hint,Unknown,bl,bl,bl,1.383333,563.5333,4006,4,1,FALSE,0,3,2,2,4006.01,,80,3,2,1,Testing,ACDB,Center EmbeddedS6,2017.10.02,308,80,C,B,1,0,No Hint,Unknown,bl,bl,bl,0.2666667,563.8,4006,4,1,FALSE,0,3,3,5,4006.03,,80,3,2,1,Testing,,S6,2017.10.02,309,80,D,C,1,0,No Hint,Unknown,bl,bl,bl,0.2,564,4006,4,1,FALSE,0,3,0,3,4006.04,,80,3,2,1,Testing,,S6,2017.10.02,310,80,B,D,1,0,No Hint,Unknown,1,0,bl,0.25,564.25,4006,4,1,FALSE,0,3,5,0,4006.02,,80,3,2,1,Testing,,S5,2017.09.29,1,1,C,A,1,0,No Hint,Unknown,bl,bl,bl,4.283333,10.73333,4006,4,1,FALSE,0,3,2,1,4006.03,,80,3,2,1,Testing,CABD,Center EmbeddedS5,2017.09.29,2,1,A,B,1,0,No Hint,Unknown,bl,bl,bl,1.416667,12.06667,4006,4,1,FALSE,0,3,1,0,4006.01,,80,3,2,1,Testing,,S5,2017.09.29,3,1,B,C,1,0,No Hint,Unknown,bl,bl,bl,0.35,12.41667,4006,4,1,FALSE,0,3,0,2,4006.02,,80,3,2,1,Testing,,S5,2017.09.29,4,1,D,D,1,0,No Hint,Unknown,1,0,bl,0.2666667,12.68333,4006,4,1,FALSE,0,3,3,3,4006.04,,80,3,2,1,Testing,,S5,2017.09.29,13,4,C,A,1,0,No Hint,Unknown,bl,bl,bl,3.766667,36.06667,4006,4,1,FALSE,0,3,4,2,4006.03,,80,3,2,1,Testing,CABD,Center EmbeddedS5,2017.09.29,14,4,A,B,1,0,No Hint,Unknown,bl,bl,bl,0.2666667,36.33333,4006,4,1,FALSE,0,3,2,5,4006.01,,80,3,2,1,Testing,,S5,2017.09.29,15,4,B,C,1,0,No Hint,Unknown,bl,bl,bl,0.25,36.58333,4006,4,1,FALSE,0,3,5,4,4006.02,,80,3,2,1,Testing,,S5,2017.09.29,16,4,D,D,1,0,No Hint,Unknown,1,0,bl,0.2833333,36.86667,4006,4,1,FALSE,0,3,1,1,4006.04,,80,3,2,1,Testing,,S5,2017.09.29,17,5,C,A,1,0,No Hint,Unknown,bl,bl,bl,2.583333,43.61667,4006,4,1,FALSE,0,3,4,5,4006.03,,80,3,2,1,Testing,CABD,Center EmbeddedS5,2017.09.29,18,5,A,B,1,0,No Hint,Unknown,bl,bl,bl,0.8,44.41667,4006,4,1,FALSE,0,3,5,3,4006.01,,80,3,2,1,Testing,,S5,2017.09.29,19,5,B,C,1,0,No Hint,Unknown,bl,bl,bl,0.35,44.76667,4006,4,1,FALSE,0,3,3,4,4006.02,,80,3,2,1,Testing,,S5,2017.09.29,20,5,D,D,1,0,No Hint,Unknown,1,0,bl,0.3333333,45.1,4006,4,1,FALSE,0,3,0,0,4006.04,,80,3,2,1,Testing,,S5,2017.09.29,25,7,C,A,1,0,No Hint,Unknown,bl,bl,bl,1.65,56.91667,4006,4,1,FALSE,0,3,3,1,4006.03,,80,3,2,1,Testing,CABD,Center EmbeddedS5,2017.09.29,26,7,A,B,1,0,No Hint,Unknown,bl,bl,bl,0.3666667,57.28333,4006,4,1,FALSE,0,3,1,0,4006.01,,80,3,2,1,Testing,,S5,2017.09.29,27,7,B,C,1,0,No Hint,Unknown,bl,bl,bl,0.2833333,57.56667,4006,4,1,FALSE,0,3,0,3,4006.02,,80,3,2,1,Testing,,S5,2017.09.29,28,7,D,D,1,0,No Hint,Unknown,1,0,bl,0.3333333,57.9,4006,4,1,FALSE,0,3,2,2,4006.04,,80,3,2,1,Testing,,S5,2017.09.29,37,10,C,A,1,0,No Hint,Unknown,bl,bl,bl,1.583333,77.15,4006,4,1,FALSE,0,3,1,4,4006.03,,80,3,2,1,Testing,CABD,Center EmbeddedS5,2017.09.29,38,10,A,B,1,0,No Hint,Unknown,bl,bl,bl,0.3,77.45,4006,4,1,FALSE,0,3,4,5,4006.01,,80,3,2,1,Testing,,S5,2017.09.29,39,10,B,C,1,0,No Hint,Unknown,bl,bl,bl,0.2833333,77.73333,4006,4,1,FALSE,0,3,5,1,4006.02,,80,3,2,1,Testing,,S5,2017.09.29,40,10,D,D,1,0,No Hint,Unknown,1,0,bl,0.35,78.08333,4006,4,1,FALSE,0,3,0,0,4006.04,,80,3,2,1,Testing,,S5,2017.09.29,45,12,C,A,1,0,No Hint,Unknown,bl,bl,bl,1.35,90.06667,4006,4,1,FALSE,0,3,2,1,4006.03,,80,3,2,1,Testing,CABD,Center EmbeddedS5,2017.09.29,46,12,A,B,1,0,No Hint,Unknown,bl,bl,bl,0.7,90.76667,4006,4,1,FALSE,0,3,1,0,4006.01,,80,3,2,1,Testing,,S5,2017.09.29,47,12,B,C,1,0,No Hint,Unknown,bl,bl,bl,0.2833333,91.05,4006,4,1,FALSE,0,3,0,2,4006.02,,80,3,2,1,Testing,,S5,2017.09.29,48,12,D,D,1,0,No Hint,Unknown,1,0,bl,0.25,91.3,4006,4,1,FALSE,0,3,4,4,4006.04,,80,3,2,1,Testing,,S5,2017.09.29,53,14,C,A,1,0,No Hint,Unknown,bl,bl,bl,1.616667,103.9333,4006,4,1,FALSE,0,3,4,2,4006.03,,80,3,2,1,Testing,CABD,Center EmbeddedS5,2017.09.29,54,14,A,B,1,0,No Hint,Unknown,bl,bl,bl,0.35,104.2833,4006,4,1,FALSE,0,3,2,0,4006.01,,80,3,2,1,Testing,,S5,2017.09.29,55,14,B,C,1,0,No Hint,Unknown,bl,bl,bl,0.3,104.5833,4006,4,1,FALSE,0,3,0,4,4006.02,,80,3,2,1,Testing,,S5,2017.09.29,56,14,D,D,1,0,No Hint,Unknown,1,0,bl,0.2666667,104.85,4006,4,1,FALSE,0,3,5,5,4006.04,,80,3,2,1,Testing,,S5,2017.09.29,57,15,C,A,1,0,No Hint,Unknown,bl,bl,bl,1.533333,110.3833,4006,4,1,FALSE,0,3,1,4,4006.03,,80,3,2,1,Testing,CABD,Center EmbeddedS5,2017.09.29,58,15,A,B,1,0,No Hint,Unknown,bl,bl,bl,0.25,110.6333,4006,4,1,FALSE,0,3,4,2,4006.01,,80,3,2,1,Testing,,S5,2017.09.29,59,15,B,C,1,0,No Hint,Unknown,bl,bl,bl,0.2833333,110.9167,4006,4,1,FALSE,0,3,2,1,4006.02,,80,3,2,1,Testing,,S5,2017.09.29,60,15,D,D,1,0,No Hint,Unknown,1,0,bl,0.25,111.1667,4006,4,1,FALSE,0,3,5,5,4006.04,,80,3,2,1,Testing,,S5,2017.09.29,61,16,C,A,1,0,No Hint,Unknown,bl,bl,bl,1.133333,117.65,4006,4,1,FALSE,0,3,3,1,4006.03,,80,3,2,1,Testing,CABD,Center EmbeddedS5,2017.09.29,62,16,A,B,1,0,No Hint,Unknown,bl,bl,bl,0.2666667,117.9167,4006,4,1,FALSE,0,3,1,0,4006.01,,80,3,2,1,Testing,,S5,2017.09.29,63,16,B,C,1,0,No Hint,Unknown,bl,bl,bl,0.25,118.1667,4006,4,1,FALSE,0,3,0,3,4006.02,,80,3,2,1,Testing,,S5,2017.09.29,64,16,D,D,1,0,No Hint,Unknown,1,0,bl,0.2166667,118.3833,4006,4,1,FALSE,0,3,4,4,4006.04,,80,3,2,1,Testing,,S5,2017.09.29,65,17,C,A,1,0,No Hint,Unknown,bl,bl,bl,1.4,123.8667,4006,4,1,FALSE,0,3,5,1,4006.03,,80,3,2,1,Testing,CABD,Center EmbeddedS5,2017.09.29,66,17,A,B,1,0,No Hint,Unknown,bl,bl,bl,0.3,124.1667,4006,4,1,FALSE,0,3,1,3,4006.01,,80,3,2,1,Testing,,S5,2017.09.29,67,17,B,C,1,0,No Hint,Unknown,bl,bl,bl,0.25,124.4167,4006,4,1,FALSE,0,3,3,5,4006.02,,80,3,2,1,Testing,,S5,2017.09.29,68,17,D,D,1,0,No Hint,Unknown,1,0,bl,0.25,124.6667,4006,4,1,FALSE,0,3,4,4,4006.04,,80,3,2,1,Testing,,S5,2017.09.29,97,25,A,A,1,0,No Hint,Unknown,bl,bl,bl,1.416667,180.9667,4006,4,1,FALSE,0,3,0,0,4006.01,,80,3,2,1,Testing,ACDB,Center EmbeddedS5,2017.09.29,98,25,C,B,1,0,No Hint,Unknown,bl,bl,bl,0.2833333,181.25,4006,4,1,FALSE,0,3,5,2,4006.03,,80,3,2,1,Testing,,S5,2017.09.29,99,25,D,C,1,0,No Hint,Unknown,bl,bl,bl,0.2666667,181.5167,4006,4,1,FALSE,0,3,1,5,4006.04,,80,3,2,1,Testing,,S5,2017.09.29,100,25,B,D,1,0,No Hint,Unknown,1,0,bl,0.25,181.7667,4006,4,1,FALSE,0,3,2,1,4006.02,,80,3,2,1,Testing,,S5,2017.09.29,105,27,C,A,1,0,No Hint,Unknown,bl,bl,bl,1.816667,193.85,4006,4,1,FALSE,0,3,5,4,4006.03,,80,3,2,1,Testing,CABD,Center EmbeddedS5,2017.09.29,106,27,A,B,1,0,No Hint,Unknown,bl,bl,bl,0.2833333,194.1333,4006,4,1,FALSE,0,3,4,3,4006.01,,80,3,2,1,Testing,,S5,2017.09.29,107,27,B,C,1,0,No Hint,Unknown,bl,bl,bl,0.2666667,194.4,4006,4,1,FALSE,0,3,3,5,4006.02,,80,3,2,1,Testing,,S5,2017.09.29,108,27,D,D,1,0,No Hint,Unknown,1,0,bl,0.8833333,195.2833,4006,4,1,FALSE,0,3,1,1,4006.04,,80,3,2,1,Testing,,S5,2017.09.29,113,29,C,A,1,0,No Hint,Unknown,bl,bl,bl,1.233333,206.4667,4006,4,1,FALSE,0,3,2,5,4006.03,,80,3,2,1,Testing,CADB,CrossedS5,2017.09.29,114,29,A,B,1,0,No Hint,Unknown,bl,bl,bl,0.2333333,206.7,4006,4,1,FALSE,0,3,5,4,4006.01,,80,3,2,1,Testing,,S5,2017.09.29,115,29,D,C,1,0,No Hint,Unknown,bl,bl,bl,0.3333333,207.0333,4006,4,1,FALSE,0,3,3,2,4006.04,,80,3,2,1,Testing,,S5,2017.09.29,116,29,B,D,1,0,No Hint,Unknown,1,0,bl,0.8,207.8333,4006,4,1,FALSE,0,3,4,3,4006.02,,80,3,2,1,Testing,,S5,2017.09.29,117,30,A,A,1,0,No Hint,Unknown,bl,bl,bl,2.583333,215.0667,4006,4,1,FALSE,0,3,0,0,4006.01,,80,3,2,1,Testing,ACDB,Center EmbeddedS5,2017.09.29,118,30,C,B,1,0,No Hint,Unknown,bl,bl,bl,0.5666667,215.6333,4006,4,1,FALSE,0,3,1,3,4006.03,,80,3,2,1,Testing,,S5,2017.09.29,119,30,D,C,1,0,No Hint,Unknown,bl,bl,bl,0.35,215.9833,4006,4,1,FALSE,0,3,2,1,4006.04,,80,3,2,1,Testing,,S5,2017.09.29,120,30,B,D,1,0,No Hint,Unknown,1,0,bl,0.3666667,216.35,4006,4,1,FALSE,0,3,3,2,4006.02,,80,3,2,1,Testing,,S5,2017.09.29,122,32,A,A,1,0,No Hint,Unknown,bl,bl,bl,1.216667,230.3333,4006,4,1,FALSE,0,3,4,4,4006.01,,80,3,2,1,Testing,ABDC,ALL OTHERS5,2017.09.29,123,32,B,B,1,0,No Hint,Unknown,bl,bl,bl,0.2666667,230.6,4006,4,1,FALSE,0,3,5,5,4006.02,,80,3,2,1,Testing,,S5,2017.09.29,124,32,D,C,1,0,No Hint,Unknown,bl,bl,bl,0.2666667,230.8667,4006,4,1,FALSE,0,3,1,0,4006.04,,80,3,2,1,Testing,,S5,2017.09.29,125,32,C,D,1,0,No Hint,Unknown,1,0,bl,0.25,231.1167,4006,4,1,FALSE,0,3,0,1,4006.03,,80,3,2,1,Testing,,S5,2017.09.29,126,33,C,A,1,0,No Hint,Unknown,bl,bl,bl,2.3,237.5,4006,4,1,FALSE,0,3,3,0,4006.03,,80,3,2,1,Testing,CABD,Center EmbeddedS5,2017.09.29,127,33,A,B,1,0,No Hint,Unknown,bl,bl,bl,0.8333333,238.3333,4006,4,1,FALSE,0,3,0,5,4006.01,,80,3,2,1,Testing,,S5,2017.09.29,128,33,B,C,1,0,No Hint,Unknown,bl,bl,bl,0.3333333,238.6667,4006,4,1,FALSE,0,3,5,3,4006.02,,80,3,2,1,Testing,,S5,2017.09.29,129,33,D,D,1,0,No Hint,Unknown,1,0,bl,0.3166667,238.9833,4006,4,1,FALSE,0,3,4,4,4006.04,,80,3,2,1,Testing,,S5,2017.09.29,134,35,B,A,1,0,No Hint,Unknown,bl,bl,bl,1.033333,250.5167,4006,4,1,FALSE,0,3,5,1,4006.02,,80,3,2,1,Testing,BADC,ALL OTHERS5,2017.09.29,135,35,A,B,1,0,No Hint,Unknown,bl,bl,bl,0.2666667,250.7833,4006,4,1,FALSE,0,3,1,5,4006.01,,80,3,2,1,Testing,,S5,2017.09.29,136,35,D,C,1,0,No Hint,Unknown,bl,bl,bl,0.2166667,251,4006,4,1,FALSE,0,3,4,2,4006.04,,80,3,2,1,Testing,,S5,2017.09.29,137,35,C,D,1,0,No Hint,Unknown,1,0,bl,0.25,251.25,4006,4,1,FALSE,0,3,2,4,4006.03,,80,3,2,1,Testing,,S5,2017.09.29,148,39,C,A,1,0,No Hint,Unknown,bl,bl,bl,1.216667,277.1,4006,4,1,FALSE,0,3,3,5,4006.03,,80,3,2,1,Testing,CABD,Center EmbeddedS5,2017.09.29,149,39,A,B,1,0,No Hint,Unknown,bl,bl,bl,0.2666667,277.3667,4006,4,1,FALSE,0,3,5,0,4006.01,,80,3,2,1,Testing,,S5,2017.09.29,150,39,B,C,1,0,No Hint,Unknown,bl,bl,bl,0.3,277.6667,4006,4,1,FALSE,0,3,0,3,4006.02,,80,3,2,1,Testing,,S5,2017.09.29,151,39,D,D,1,0,No Hint,Unknown,1,0,bl,0.2833333,277.95,4006,4,1,FALSE,0,3,2,2,4006.04,,80,3,2,1,Testing,,S5,2017.09.29,152,40,D,A,1,0,No Hint,Unknown,bl,bl,bl,1.333333,283.6667,4006,4,1,FALSE,0,3,2,1,4006.04,,80,3,2,1,Testing,DCAB,ALL OTHERS5,2017.09.29,153,40,C,B,1,0,No Hint,Unknown,bl,bl,bl,0.2666667,283.9333,4006,4,1,FALSE,0,3,0,4,4006.03,,80,3,2,1,Testing,,S5,2017.09.29,154,40,A,C,1,0,No Hint,Unknown,bl,bl,bl,0.2166667,284.15,4006,4,1,FALSE,0,3,1,0,4006.01,,80,3,2,1,Testing,,S5,2017.09.29,155,40,B,D,1,0,No Hint,Unknown,1,0,bl,0.25,284.4,4006,4,1,FALSE,0,3,4,2,4006.02,,80,3,2,1,Testing,,S5,2017.09.29,160,42,A,A,1,0,No Hint,Unknown,bl,bl,bl,1.116667,295.9667,4006,4,1,FALSE,0,3,0,0,4006.01,,80,3,2,1,Testing,ACDB,Center EmbeddedS5,2017.09.29,161,42,C,B,1,0,No Hint,Unknown,bl,bl,bl,0.7,296.6667,4006,4,1,FALSE,0,3,1,2,4006.03,,80,3,2,1,Testing,,S5,2017.09.29,162,42,D,C,1,0,No Hint,Unknown,bl,bl,bl,0.25,296.9167,4006,4,1,FALSE,0,3,4,1,4006.04,,80,3,2,1,Testing,,S5,2017.09.29,163,42,B,D,1,0,No Hint,Unknown,1,0,bl,0.2833333,297.2,4006,4,1,FALSE,0,3,2,4,4006.02,,80,3,2,1,Testing,,