Sub,Date,Press,Trial,ItemPressed,CorrectItem,Accuracy,Hint,HintNominal,Known,TrialAcc,HintsPerTrial,HintRT,RT,Time,List,Items,Day,HintAvailible,HintPause,NumLists,PortPressed,CorrectPort,PicturePressed,Chamber,TrialsPerSession,TO,ITI,Other Day,Test or Training,Order pressed,Response type,Age,TACL Vocab Raw,TACL Grammar Morph Raw ,TACL EPS RAW,TEMA RAW,FORWARDS DIGITS,STD ACC,EXCLUDE,Notesk0467,2015.04.03,5,2,B,A,1,0,No Hint,Unknown,,bl,bl,5.283333,62.73333,4006,4,1,FALSE,0,6,2,0,4006.02,,40,3,2,1,TEST,BCDA,ALL OTHER,4.629705681,24,38,51,20,15,0.4,0,0k0467,2015.04.03,6,2,C,B,1,0,No Hint,Unknown,,bl,bl,2.35,65.08333,4006,4,1,FALSE,0,6,5,2,4006.03,,40,3,2,1,TEST,,,4.629705681,24,38,51,20,15,0.4,0,0k0467,2015.04.03,7,2,D,C,1,0,No Hint,Unknown,,bl,bl,3.183333,68.26667,4006,4,1,FALSE,0,6,1,5,4006.04,,40,3,2,1,TEST,,,4.629705681,24,38,51,20,15,0.4,0,0k0467,2015.04.03,8,2,A,D,1,0,No Hint,Unknown,1,0,bl,0.9666667,69.23333,4006,4,1,FALSE,0,6,0,1,4006.01,,40,3,2,1,TEST,,,4.629705681,24,38,51,20,15,0.4,0,0k0467,2015.04.03,9,3,B,A,1,0,No Hint,Unknown,,bl,bl,4.133333,77.8,4006,4,1,FALSE,0,6,0,4,4006.02,,40,3,2,1,TEST,BDCA,ALL OTHER,4.629705681,24,38,51,20,15,0.4,0,0k0467,2015.04.03,10,3,D,B,1,0,No Hint,Unknown,,bl,bl,1.75,79.55,4006,4,1,FALSE,0,6,1,0,4006.04,,40,3,2,1,TEST,,,4.629705681,24,38,51,20,15,0.4,0,0k0467,2015.04.03,11,3,C,C,1,0,No Hint,Unknown,,bl,bl,3.9,83.45,4006,4,1,FALSE,0,6,3,3,4006.03,,40,3,2,1,TEST,,,4.629705681,24,38,51,20,15,0.4,0,0k0467,2015.04.03,12,3,A,D,1,0,No Hint,Unknown,1,0,bl,1.05,84.5,4006,4,1,FALSE,0,6,4,1,4006.01,,40,3,2,1,TEST,,,4.629705681,24,38,51,20,15,0.4,0,0k0467,2015.04.03,14,5,C,A,1,0,No Hint,Unknown,,bl,bl,3.5,107.3333,4006,4,1,FALSE,0,6,5,2,4006.03,,40,3,2,1,TEST,CBDA,ALL OTHER,4.629705681,24,38,51,20,15,0.4,0,0k0467,2015.04.03,15,5,B,B,1,0,No Hint,Unknown,,bl,bl,2.55,109.8833,4006,4,1,FALSE,0,6,1,1,4006.02,,40,3,2,1,TEST,,,4.629705681,24,38,51,20,15,0.4,0,0k0467,2015.04.03,16,5,D,C,1,0,No Hint,Unknown,,bl,bl,3.733333,113.6167,4006,4,1,FALSE,0,6,0,5,4006.04,,40,3,2,1,TEST,,,4.629705681,24,38,51,20,15,0.4,0,0k0467,2015.04.03,17,5,A,D,1,0,No Hint,Unknown,1,0,bl,0.85,114.4667,4006,4,1,FALSE,0,6,2,0,4006.01,,40,3,2,1,TEST,,,4.629705681,24,38,51,20,15,0.4,0,0k0467,2015.04.03,24,10,A,A,1,0,No Hint,Unknown,,bl,bl,2.183333,166.9333,4006,4,1,FALSE,0,6,5,5,4006.01,,40,3,2,1,TEST,ADBC,ALL OTHER,4.629705681,24,38,51,20,15,0.4,0,0k0467,2015.04.03,25,10,D,B,1,0,No Hint,Unknown,,bl,bl,4,170.9333,4006,4,1,FALSE,0,6,1,0,4006.04,,40,3,2,1,TEST,,,4.629705681,24,38,51,20,15,0.4,0,0k0467,2015.04.03,26,10,B,C,1,0,No Hint,Unknown,,bl,bl,4.183333,175.1167,4006,4,1,FALSE,0,6,0,4,4006.02,,40,3,2,1,TEST,,,4.629705681,24,38,51,20,15,0.4,0,0k0467,2015.04.03,27,10,C,D,1,0,No Hint,Unknown,1,0,bl,1.366667,176.4833,4006,4,1,FALSE,0,6,4,1,4006.03,,40,3,2,1,TEST,,,4.629705681,24,38,51,20,15,0.4,0,0k0467,2015.04.03,28,11,A,A,1,0,No Hint,Unknown,,bl,bl,3.633333,185.55,4006,4,1,FALSE,0,6,0,0,4006.01,,40,3,2,1,TEST,ACBD,Crossed,4.629705681,24,38,51,20,15,0.4,0,0k0467,2015.04.03,29,11,C,B,1,0,No Hint,Unknown,,bl,bl,3.266667,188.8167,4006,4,1,FALSE,0,6,1,5,4006.03,,40,3,2,1,TEST,,,4.629705681,24,38,51,20,15,0.4,0,0k0467,2015.04.03,30,11,B,C,1,0,No Hint,Unknown,,bl,bl,3.35,192.1667,4006,4,1,FALSE,0,6,5,1,4006.02,,40,3,2,1,TEST,,,4.629705681,24,38,51,20,15,0.4,0,0k0467,2015.04.03,31,11,D,D,1,0,No Hint,Unknown,1,0,bl,1.233333,193.4,4006,4,1,FALSE,0,6,4,4,4006.04,,40,3,2,1,TEST,,,4.629705681,24,38,51,20,15,0.4,0,0k0467,2015.04.03,32,12,A,A,1,0,No Hint,Unknown,,bl,bl,3.133333,202.8167,4006,4,1,FALSE,0,6,0,0,4006.01,,40,3,2,1,TEST,ACBD,Crossed,4.629705681,24,38,51,20,15,0.4,0,0k0467,2015.04.03,33,12,C,B,1,0,No Hint,Unknown,,bl,bl,3.25,206.0667,4006,4,1,FALSE,0,6,4,3,4006.03,,40,3,2,1,TEST,,,4.629705681,24,38,51,20,15,0.4,0,0k0467,2015.04.03,34,12,B,C,1,0,No Hint,Unknown,,bl,bl,3.15,209.2167,4006,4,1,FALSE,0,6,3,4,4006.02,,40,3,2,1,TEST,,,4.629705681,24,38,51,20,15,0.4,0,0k0467,2015.04.03,35,12,D,D,1,0,No Hint,Unknown,1,0,bl,0.85,210.0667,4006,4,1,FALSE,0,6,2,2,4006.04,,40,3,2,1,TEST,,,4.629705681,24,38,51,20,15,0.4,0,0k0467,2015.04.03,36,13,B,A,1,0,No Hint,Unknown,,bl,bl,1.683333,216.05,4006,4,1,FALSE,0,6,0,4,4006.02,,40,3,2,1,TEST,BCDA,ALL OTHER,4.629705681,24,38,51,20,15,0.4,0,0k0467,2015.04.03,37,13,C,B,1,0,No Hint,Unknown,,bl,bl,2.083333,218.1333,4006,4,1,FALSE,0,6,2,0,4006.03,,40,3,2,1,TEST,,,4.629705681,24,38,51,20,15,0.4,0,0k0467,2015.04.03,38,13,D,C,1,0,No Hint,Unknown,,bl,bl,1.366667,219.5,4006,4,1,FALSE,0,6,3,2,4006.04,,40,3,2,1,TEST,,,4.629705681,24,38,51,20,15,0.4,0,0k0467,2015.04.03,39,13,A,D,1,0,No Hint,Unknown,1,0,bl,0.8166667,220.3167,4006,4,1,FALSE,0,6,4,3,4006.01,,40,3,2,1,TEST,,,4.629705681,24,38,51,20,15,0.4,0,0k0467,2015.04.03,44,16,A,A,1,0,No Hint,Unknown,,bl,bl,1.983333,283.2333,4006,4,1,FALSE,0,6,4,4,4006.01,,40,3,2,1,TEST,ACDB,Center Embedded,4.629705681,24,38,51,20,15,0.4,0,0k0467,2015.04.03,45,16,C,B,1,0,No Hint,Unknown,,bl,bl,2.683333,285.9167,4006,4,1,FALSE,0,6,2,1,4006.03,,40,3,2,1,TEST,,,4.629705681,24,38,51,20,15,0.4,0,0k0467,2015.04.03,46,16,D,C,1,0,No Hint,Unknown,,bl,bl,1.8,287.7167,4006,4,1,FALSE,0,6,5,2,4006.04,,40,3,2,1,TEST,,,4.629705681,24,38,51,20,15,0.4,0,0k0467,2015.04.03,47,16,B,D,1,0,No Hint,Unknown,1,0,bl,1.066667,288.7833,4006,4,1,FALSE,0,6,1,5,4006.02,,40,3,2,1,TEST,,,4.629705681,24,38,51,20,15,0.4,0,0k0467,2015.04.03,48,17,C,A,1,0,No Hint,Unknown,,bl,bl,1.45,323.6667,4006,4,1,FALSE,0,6,1,0,4006.03,,40,3,2,1,TEST,CDBA,ALL OTHER,4.629705681,24,38,51,20,15,0.4,0,0k0467,2015.04.03,49,17,D,B,1,0,No Hint,Unknown,,bl,bl,4.5,328.1667,4006,4,1,FALSE,0,6,3,4,4006.04,,40,3,2,1,TEST,,,4.629705681,24,38,51,20,15,0.4,0,0k0467,2015.04.03,50,17,B,C,1,0,No Hint,Unknown,,bl,bl,2.35,330.5167,4006,4,1,FALSE,0,6,4,1,4006.02,,40,3,2,1,TEST,,,4.629705681,24,38,51,20,15,0.4,0,0k0467,2015.04.03,51,17,A,D,1,0,No Hint,Unknown,1,0,bl,1.533333,332.05,4006,4,1,FALSE,0,6,0,3,4006.01,,40,3,2,1,TEST,,,4.629705681,24,38,51,20,15,0.4,0,0k0467,2015.04.03,58,20,C,A,1,0,No Hint,Unknown,,bl,bl,2.95,376.4667,4006,4,1,FALSE,0,6,2,1,4006.03,,40,3,2,1,TEST,CABD,Center Embedded,4.629705681,24,38,51,20,15,0.4,0,0k0467,2015.04.03,59,20,A,B,1,0,No Hint,Unknown,,bl,bl,2.783333,379.25,4006,4,1,FALSE,0,6,1,4,4006.01,,40,3,2,1,TEST,,,4.629705681,24,38,51,20,15,0.4,0,0k0467,2015.04.03,60,20,B,C,1,0,No Hint,Unknown,,bl,bl,2.516667,381.7667,4006,4,1,FALSE,0,6,4,2,4006.02,,40,3,2,1,TEST,,,4.629705681,24,38,51,20,15,0.4,0,0k0467,2015.04.03,61,20,D,D,1,0,No Hint,Unknown,1,0,bl,1.083333,382.85,4006,4,1,FALSE,0,6,0,0,4006.04,,40,3,2,1,TEST,,,4.629705681,24,38,51,20,15,0.4,0,0k0467,2015.04.03,79,27,C,A,1,0,No Hint,Unknown,,bl,bl,3.166667,487.5,4006,4,1,FALSE,0,6,3,0,4006.03,,40,3,2,1,TEST,CADB,Crossed,4.629705681,24,38,51,20,15,0.4,0,0k0467,2015.04.03,80,27,A,B,1,0,No Hint,Unknown,,bl,bl,3.65,491.15,4006,4,1,FALSE,0,6,0,2,4006.01,,40,3,2,1,TEST,,,4.629705681,24,38,51,20,15,0.4,0,0k0467,2015.04.03,81,27,D,C,1,0,No Hint,Unknown,,bl,bl,2.7,493.85,4006,4,1,FALSE,0,6,1,3,4006.04,,40,3,2,1,TEST,,,4.629705681,24,38,51,20,15,0.4,0,0k0467,2015.04.03,82,27,B,D,1,0,No Hint,Unknown,1,0,bl,1.083333,494.9333,4006,4,1,FALSE,0,6,2,1,4006.02,,40,3,2,1,TEST,,,4.629705681,24,38,51,20,15,0.4,0,0k0467,2015.04.03,83,28,B,A,1,0,No Hint,Unknown,,bl,bl,4.133333,530.25,4006,4,1,FALSE,0,6,5,0,4006.02,,40,3,2,1,TEST,BCAD,ALL OTHER,4.629705681,24,38,51,20,15,0.4,0,0k0467,2015.04.03,84,28,C,B,1,0,No Hint,Unknown,,bl,bl,3.183333,533.4333,4006,4,1,FALSE,0,6,4,5,4006.03,,40,3,2,1,TEST,,,4.629705681,24,38,51,20,15,0.4,0,0k0467,2015.04.03,85,28,A,C,1,0,No Hint,Unknown,,bl,bl,1.933333,535.3667,4006,4,1,FALSE,0,6,0,4,4006.01,,40,3,2,1,TEST,,,4.629705681,24,38,51,20,15,0.4,0,0k0467,2015.04.03,86,28,D,D,1,0,No Hint,Unknown,1,0,bl,1.2,536.5667,4006,4,1,FALSE,0,6,3,3,4006.04,,40,3,2,1,TEST,,,4.629705681,24,38,51,20,15,0.4,0,0k0467,2015.04.03,91,30,C,A,1,0,No Hint,Unknown,,bl,bl,3.383333,567.9,4006,4,1,FALSE,0,6,3,4,4006.03,,40,3,2,1,TEST,CBDA,ALL OTHER,4.629705681,24,38,51,20,15,0.4,0,0k0467,2015.04.03,92,30,B,B,1,0,No Hint,Unknown,,bl,bl,2.616667,570.5167,4006,4,1,FALSE,0,6,1,1,4006.02,,40,3,2,1,TEST,,,4.629705681,24,38,51,20,15,0.4,0,0k0467,2015.04.03,93,30,D,C,1,0,No Hint,Unknown,,bl,bl,1.483333,572,4006,4,1,FALSE,0,6,0,3,4006.04,,40,3,2,1,TEST,,,4.629705681,24,38,51,20,15,0.4,0,0k0467,2015.04.03,94,30,A,D,1,0,No Hint,Unknown,1,0,bl,1.066667,573.0667,4006,4,1,FALSE,0,6,4,0,4006.01,,40,3,2,1,TEST,,,4.629705681,24,38,51,20,15,0.4,0,0k0467,2015.04.03,95,31,C,A,1,0,No Hint,Unknown,,bl,bl,3.35,582.2167,4006,4,1,FALSE,0,6,0,3,4006.03,,40,3,2,1,TEST,CBDA,ALL OTHER,4.629705681,24,38,51,20,15,0.4,0,0k0467,2015.04.03,96,31,B,B,1,0,No Hint,Unknown,,bl,bl,1.9,584.1167,4006,4,1,FALSE,0,6,2,2,4006.02,,40,3,2,1,TEST,,,4.629705681,24,38,51,20,15,0.4,0,0k0467,2015.04.03,97,31,D,C,1,0,No Hint,Unknown,,bl,bl,2.133333,586.25,4006,4,1,FALSE,0,6,5,0,4006.04,,40,3,2,1,TEST,,,4.629705681,24,38,51,20,15,0.4,0,0k0467,2015.04.03,98,31,A,D,1,0,No Hint,Unknown,1,0,bl,2.433333,588.6833,4006,4,1,FALSE,0,6,3,5,4006.01,,40,3,2,1,TEST,,,4.629705681,24,38,51,20,15,0.4,0,0k0467,2015.04.03,99,32,C,A,1,0,No Hint,Unknown,,bl,bl,4.283333,605.1167,4006,4,1,FALSE,0,6,3,0,4006.03,,40,3,2,1,TEST,CBAD,ALL OTHER,4.629705681,24,38,51,20,15,0.4,0,0k0467,2015.04.03,100,32,B,B,1,0,No Hint,Unknown,,bl,bl,1.883333,607,4006,4,1,FALSE,0,6,2,2,4006.02,,40,3,2,1,TEST,,,4.629705681,24,38,51,20,15,0.4,0,0k0467,2015.04.03,101,32,A,C,1,0,No Hint,Unknown,,bl,bl,2.416667,609.4167,4006,4,1,FALSE,0,6,0,3,4006.01,,40,3,2,1,TEST,,,4.629705681,24,38,51,20,15,0.4,0,0k0467,2015.04.03,102,32,D,D,1,0,No Hint,Unknown,1,0,bl,0.8333333,610.25,4006,4,1,FALSE,0,6,1,1,4006.04,,40,3,2,1,TEST,,,4.629705681,24,38,51,20,15,0.4,0,0k0467,2015.04.03,103,33,C,A,1,0,No Hint,Unknown,,bl,bl,2.083333,616.6667,4006,4,1,FALSE,0,6,4,0,4006.03,,40,3,2,1,TEST,CBAD,ALL OTHER,4.629705681,24,38,51,20,15,0.4,0,0k0467,2015.04.03,104,33,B,B,1,0,No Hint,Unknown,,bl,bl,2.016667,618.6833,4006,4,1,FALSE,0,6,5,5,4006.02,,40,3,2,1,TEST,,,4.629705681,24,38,51,20,15,0.4,0,0k0467,2015.04.03,105,33,A,C,1,0,No Hint,Unknown,,bl,bl,1.666667,620.35,4006,4,1,FALSE,0,6,0,4,4006.01,,40,3,2,1,TEST,,,4.629705681,24,38,51,20,15,0.4,0,0k0467,2015.04.03,106,33,D,D,1,0,No Hint,Unknown,1,0,bl,0.7166667,621.0667,4006,4,1,FALSE,0,6,2,2,4006.04,,40,3,2,1,TEST,,,4.629705681,24,38,51,20,15,0.4,0,0k0467,2015.04.03,111,35,A,A,1,0,No Hint,Unknown,,bl,bl,2.916667,643.25,4006,4,1,FALSE,0,6,0,0,4006.01,,40,3,2,1,TEST,ADBC,ALL OTHER,4.629705681,24,38,51,20,15,0.4,0,0k0467,2015.04.03,112,35,D,B,1,0,No Hint,Unknown,,bl,bl,3.816667,647.0667,4006,4,1,FALSE,0,6,3,4,4006.04,,40,3,2,1,TEST,,,4.629705681,24,38,51,20,15,0.4,0,0k0467,2015.04.03,113,35,B,C,1,0,No Hint,Unknown,,bl,bl,2.5,649.5667,4006,4,1,FALSE,0,6,4,2,4006.02,,40,3,2,1,TEST,,,4.629705681,24,38,51,20,15,0.4,0,0k0467,2015.04.03,114,35,C,D,1,0,No Hint,Unknown,1,0,bl,0.55,650.1167,4006,4,1,FALSE,0,6,2,3,4006.03,,40,3,2,1,TEST,,,4.629705681,24,38,51,20,15,0.4,0,0k0467,2015.04.03,115,36,A,A,1,0,No Hint,Unknown,,bl,bl,1.983333,656.55,4006,4,1,FALSE,0,6,2,2,4006.01,,40,3,2,1,TEST,ADCB,ALL OTHER,4.629705681,24,38,51,20,15,0.4,0,0k0467,2015.04.03,116,36,D,B,1,0,No Hint,Unknown,,bl,bl,1.916667,658.4667,4006,4,1,FALSE,0,6,5,0,4006.04,,40,3,2,1,TEST,,,4.629705681,24,38,51,20,15,0.4,0,0k0467,2015.04.03,117,36,C,C,1,0,No Hint,Unknown,,bl,bl,3.35,661.8167,4006,4,1,FALSE,0,6,3,3,4006.03,,40,3,2,1,TEST,,,4.629705681,24,38,51,20,15,0.4,0,0k0467,2015.04.03,118,36,B,D,1,0,No Hint,Unknown,1,0,bl,0.5666667,662.3833,4006,4,1,FALSE,0,6,0,5,4006.02,,40,3,2,1,TEST,,,4.629705681,24,38,51,20,15,0.4,0,0k0467,2015.04.03,119,37,A,A,1,0,No Hint,Unknown,,bl,bl,2.7,669.4333,4006,4,1,FALSE,0,6,4,4,4006.01,,40,3,2,1,TEST,ADBC,ALL OTHER,4.629705681,24,38,51,20,15,0.4,0,0k0467,2015.04.03,120,37,D,B,1,0,No Hint,Unknown,,bl,bl,1.833333,671.2667,4006,4,1,FALSE,0,6,2,0,4006.04,,40,3,2,1,TEST,,,4.629705681,24,38,51,20,15,0.4,0,0k0467,2015.04.03,121,37,B,C,1,0,No Hint,Unknown,,bl,bl,0.9333333,672.2,4006,4,1,FALSE,0,6,0,1,4006.02,,40,3,2,1,TEST,,,4.629705681,24,38,51,20,15,0.4,0,0k0467,2015.04.03,122,37,C,D,1,0,No Hint,Unknown,1,0,bl,0.6333333,672.8333,4006,4,1,FALSE,0,6,1,2,4006.03,,40,3,2,1,TEST,,,4.629705681,24,38,51,20,15,0.4,0,0k0467,2015.04.03,127,39,C,A,1,0,No Hint,Unknown,,bl,bl,4.4,694.2,4006,4,1,FALSE,0,6,3,0,4006.03,,40,3,2,1,TEST,CBAD,ALL OTHER,4.629705681,24,38,51,20,15,0.4,0,0k0467,2015.04.03,128,39,B,B,1,0,No Hint,Unknown,,bl,bl,1.716667,695.9167,4006,4,1,FALSE,0,6,4,4,4006.02,,40,3,2,1,TEST,,,4.629705681,24,38,51,20,15,0.4,0,0k0467,2015.04.03,129,39,A,C,1,0,No Hint,Unknown,,bl,bl,1.55,697.4667,4006,4,1,FALSE,0,6,0,3,4006.01,,40,3,2,1,TEST,,,4.629705681,24,38,51,20,15,0.4,0,0k0467,2015.04.03,130,39,D,D,1,0,No Hint,Unknown,1,0,bl,0.6666667,698.1333,4006,4,1,FALSE,0,6,1,1,4006.04,,40,3,2,1,TEST,,,4.629705681,24,38,51,20,15,0.4,0,0k0473,2015.04.14,9,3,A,A,1,0,No Hint,Unknown,,bl,bl,3.85,26.36667,4006,4,1,FALSE,0,6,2,2,4006.01,,40,3,2,1,TEST,ACDB,Center Embedded,4.739219713,39,53,45,22,21,0.7,0,0k0473,2015.04.14,10,3,C,B,1,0,No Hint,Unknown,,bl,bl,2.45,28.81667,4006,4,1,FALSE,0,6,0,3,4006.03,,40,3,2,1,TEST,,,4.739219713,39,53,45,22,21,0.7,0,0k0473,2015.04.14,11,3,D,C,1,0,No Hint,Unknown,,bl,bl,0.8,29.61667,4006,4,1,FALSE,0,6,5,0,4006.04,,40,3,2,1,TEST,,,4.739219713,39,53,45,22,21,0.7,0,0k0473,2015.04.14,12,3,B,D,1,0,No Hint,Unknown,1,0,bl,0.75,30.36667,4006,4,1,FALSE,0,6,3,5,4006.02,,40,3,2,1,TEST,,,4.739219713,39,53,45,22,21,0.7,0,0k0473,2015.04.14,13,4,A,A,1,0,No Hint,Unknown,,bl,bl,2.583333,37.98333,4006,4,1,FALSE,0,6,4,4,4006.01,,40,3,2,1,TEST,ACDB,Center Embedded,4.739219713,39,53,45,22,21,0.7,0,0k0473,2015.04.14,14,4,C,B,1,0,No Hint,Unknown,,bl,bl,0.9666667,38.95,4006,4,1,FALSE,0,6,2,1,4006.03,,40,3,2,1,TEST,,,4.739219713,39,53,45,22,21,0.7,0,0k0473,2015.04.14,15,4,D,C,1,0,No Hint,Unknown,,bl,bl,3.116667,42.06667,4006,4,1,FALSE,0,6,5,2,4006.04,,40,3,2,1,TEST,,,4.739219713,39,53,45,22,21,0.7,0,0k0473,2015.04.14,16,4,B,D,1,0,No Hint,Unknown,1,0,bl,0.6666667,42.73333,4006,4,1,FALSE,0,6,1,5,4006.02,,40,3,2,1,TEST,,,4.739219713,39,53,45,22,21,0.7,0,0k0473,2015.04.14,17,5,A,A,1,0,No Hint,Unknown,,bl,bl,2.5,49.73333,4006,4,1,FALSE,0,6,0,0,4006.01,,40,3,2,1,TEST,ACDB,Center Embedded,4.739219713,39,53,45,22,21,0.7,0,0k0473,2015.04.14,18,5,C,B,1,0,No Hint,Unknown,,bl,bl,0.65,50.38333,4006,4,1,FALSE,0,6,3,2,4006.03,,40,3,2,1,TEST,,,4.739219713,39,53,45,22,21,0.7,0,0k0473,2015.04.14,19,5,D,C,1,0,No Hint,Unknown,,bl,bl,0.7,51.08333,4006,4,1,FALSE,0,6,5,3,4006.04,,40,3,2,1,TEST,,,4.739219713,39,53,45,22,21,0.7,0,0k0473,2015.04.14,20,5,B,D,1,0,No Hint,Unknown,1,0,bl,0.4333333,51.51667,4006,4,1,FALSE,0,6,2,5,4006.02,,40,3,2,1,TEST,,,4.739219713,39,53,45,22,21,0.7,0,0k0473,2015.04.14,22,7,A,A,1,0,No Hint,Unknown,,bl,bl,1.533333,66.66667,4006,4,1,FALSE,0,6,5,5,4006.01,,40,3,2,1,TEST,ACDB,Center Embedded,4.739219713,39,53,45,22,21,0.7,0,0k0473,2015.04.14,23,7,C,B,1,0,No Hint,Unknown,,bl,bl,1.983333,68.65,4006,4,1,FALSE,0,6,1,4,4006.03,,40,3,2,1,TEST,,,4.739219713,39,53,45,22,21,0.7,0,0k0473,2015.04.14,24,7,D,C,1,0,No Hint,Unknown,,bl,bl,2.116667,70.76667,4006,4,1,FALSE,0,6,2,1,4006.04,,40,3,2,1,TEST,,,4.739219713,39,53,45,22,21,0.7,0,0k0473,2015.04.14,25,7,B,D,1,0,No Hint,Unknown,1,0,bl,0.6833333,71.45,4006,4,1,FALSE,0,6,4,2,4006.02,,40,3,2,1,TEST,,,4.739219713,39,53,45,22,21,0.7,0,0k0473,2015.04.14,26,8,A,A,1,0,No Hint,Unknown,,bl,bl,2.266667,78.58333,4006,4,1,FALSE,0,6,1,1,4006.01,,40,3,2,1,TEST,ACDB,Center Embedded,4.739219713,39,53,45,22,21,0.7,0,0k0473,2015.04.14,27,8,C,B,1,0,No Hint,Unknown,,bl,bl,1.75,80.33333,4006,4,1,FALSE,0,6,3,4,4006.03,,40,3,2,1,TEST,,,4.739219713,39,53,45,22,21,0.7,0,0k0473,2015.04.14,28,8,D,C,1,0,No Hint,Unknown,,bl,bl,3,83.33333,4006,4,1,FALSE,0,6,5,3,4006.04,,40,3,2,1,TEST,,,4.739219713,39,53,45,22,21,0.7,0,0k0473,2015.04.14,29,8,B,D,1,0,No Hint,Unknown,1,0,bl,0.8333333,84.16667,4006,4,1,FALSE,0,6,4,5,4006.02,,40,3,2,1,TEST,,,4.739219713,39,53,45,22,21,0.7,0,0k0473,2015.04.14,34,10,A,A,1,0,No Hint,Unknown,,bl,bl,1.916667,104.3167,4006,4,1,FALSE,0,6,4,4,4006.01,,40,3,2,1,TEST,ACDB,Center Embedded,4.739219713,39,53,45,22,21,0.7,0,0k0473,2015.04.14,35,10,C,B,1,0,No Hint,Unknown,,bl,bl,1.483333,105.8,4006,4,1,FALSE,0,6,3,5,4006.03,,40,3,2,1,TEST,,,4.739219713,39,53,45,22,21,0.7,0,0k0473,2015.04.14,36,10,D,C,1,0,No Hint,Unknown,,bl,bl,1.1,106.9,4006,4,1,FALSE,0,6,0,3,4006.04,,40,3,2,1,TEST,,,4.739219713,39,53,45,22,21,0.7,0,0k0473,2015.04.14,37,10,B,D,1,0,No Hint,Unknown,1,0,bl,0.6833333,107.5833,4006,4,1,FALSE,0,6,5,0,4006.02,,40,3,2,1,TEST,,,4.739219713,39,53,45,22,21,0.7,0,0k0473,2015.04.14,38,11,A,A,1,0,No Hint,Unknown,,bl,bl,2.066667,113.9333,4006,4,1,FALSE,0,6,1,1,4006.01,,40,3,2,1,TEST,ACDB,Center Embedded,4.739219713,39,53,45,22,21,0.7,0,0k0473,2015.04.14,39,11,C,B,1,0,No Hint,Unknown,,bl,bl,1.783333,115.7167,4006,4,1,FALSE,0,6,2,4,4006.03,,40,3,2,1,TEST,,,4.739219713,39,53,45,22,21,0.7,0,0k0473,2015.04.14,40,11,D,C,1,0,No Hint,Unknown,,bl,bl,2.066667,117.7833,4006,4,1,FALSE,0,6,0,2,4006.04,,40,3,2,1,TEST,,,4.739219713,39,53,45,22,21,0.7,0,0k0473,2015.04.14,41,11,B,D,1,0,No Hint,Unknown,1,0,bl,0.6333333,118.4167,4006,4,1,FALSE,0,6,4,0,4006.02,,40,3,2,1,TEST,,,4.739219713,39,53,45,22,21,0.7,0,0k0473,2015.04.14,43,13,C,A,1,0,No Hint,Unknown,,bl,bl,1.75,134.8833,4006,4,1,FALSE,0,6,3,2,4006.03,,40,3,2,1,TEST,CABD,Center Embedded,4.739219713,39,53,45,22,21,0.7,0,0k0473,2015.04.14,44,13,A,B,1,0,No Hint,Unknown,,bl,bl,2.85,137.7333,4006,4,1,FALSE,0,6,2,5,4006.01,,40,3,2,1,TEST,,,4.739219713,39,53,45,22,21,0.7,0,0k0473,2015.04.14,45,13,B,C,1,0,No Hint,Unknown,,bl,bl,6.716667,144.45,4006,4,1,FALSE,0,6,5,3,4006.02,,40,3,2,1,TEST,,,4.739219713,39,53,45,22,21,0.7,0,0k0473,2015.04.14,46,13,D,D,1,0,No Hint,Unknown,1,0,bl,1.3,145.75,4006,4,1,FALSE,0,6,0,0,4006.04,,40,3,2,1,TEST,,,4.739219713,39,53,45,22,21,0.7,0,0k0473,2015.04.14,50,15,A,A,1,0,No Hint,Unknown,,bl,bl,3.9,167.9833,4006,4,1,FALSE,0,6,1,1,4006.01,,40,3,2,1,TEST,ACDB,Center Embedded,4.739219713,39,53,45,22,21,0.7,0,0k0473,2015.04.14,51,15,C,B,1,0,No Hint,Unknown,,bl,bl,1.016667,169,4006,4,1,FALSE,0,6,0,5,4006.03,,40,3,2,1,TEST,,,4.739219713,39,53,45,22,21,0.7,0,0k0473,2015.04.14,52,15,D,C,1,0,No Hint,Unknown,,bl,bl,0.8666667,169.8667,4006,4,1,FALSE,0,6,4,0,4006.04,,40,3,2,1,TEST,,,4.739219713,39,53,45,22,21,0.7,0,0k0473,2015.04.14,53,15,B,D,1,0,No Hint,Unknown,1,0,bl,0.5,170.3667,4006,4,1,FALSE,0,6,5,4,4006.02,,40,3,2,1,TEST,,,4.739219713,39,53,45,22,21,0.7,0,0k0473,2015.04.14,58,17,A,A,1,0,No Hint,Unknown,,bl,bl,2.2,188.4167,4006,4,1,FALSE,0,6,3,3,4006.01,,40,3,2,1,TEST,ACDB,Center Embedded,4.739219713,39,53,45,22,21,0.7,0,0k0473,2015.04.14,59,17,C,B,1,0,No Hint,Unknown,,bl,bl,1.066667,189.4833,4006,4,1,FALSE,0,6,0,4,4006.03,,40,3,2,1,TEST,,,4.739219713,39,53,45,22,21,0.7,0,0k0473,2015.04.14,60,17,D,C,1,0,No Hint,Unknown,,bl,bl,2.633333,192.1167,4006,4,1,FALSE,0,6,2,0,4006.04,,40,3,2,1,TEST,,,4.739219713,39,53,45,22,21,0.7,0,0k0473,2015.04.14,61,17,B,D,1,0,No Hint,Unknown,1,0,bl,0.6333333,192.75,4006,4,1,FALSE,0,6,4,2,4006.02,,40,3,2,1,TEST,,,4.739219713,39,53,45,22,21,0.7,0,0k0473,2015.04.14,70,20,A,A,1,0,No Hint,Unknown,,bl,bl,4.516667,226.55,4006,4,1,FALSE,0,6,0,0,4006.01,,40,3,2,1,TEST,ACDB,Center Embedded,4.739219713,39,53,45,22,21,0.7,0,0k0473,2015.04.14,71,20,C,B,1,0,No Hint,Unknown,,bl,bl,0.5833333,227.1333,4006,4,1,FALSE,0,6,3,1,4006.03,,40,3,2,1,TEST,,,4.739219713,39,53,45,22,21,0.7,0,0k0473,2015.04.14,72,20,D,C,1,0,No Hint,Unknown,,bl,bl,2.716667,229.85,4006,4,1,FALSE,0,6,5,3,4006.04,,40,3,2,1,TEST,,,4.739219713,39,53,45,22,21,0.7,0,0k0473,2015.04.14,73,20,B,D,1,0,No Hint,Unknown,1,0,bl,0.4666667,230.3167,4006,4,1,FALSE,0,6,1,5,4006.02,,40,3,2,1,TEST,,,4.739219713,39,53,45,22,21,0.7,0,0k0473,2015.04.14,82,23,A,A,1,0,No Hint,Unknown,,bl,bl,3.25,259.2333,4006,4,1,FALSE,0,6,5,5,4006.01,,40,3,2,1,TEST,ACDB,Center Embedded,4.739219713,39,53,45,22,21,0.7,0,0k0473,2015.04.14,83,23,C,B,1,0,No Hint,Unknown,,bl,bl,1.2,260.4333,4006,4,1,FALSE,0,6,2,0,4006.03,,40,3,2,1,TEST,,,4.739219713,39,53,45,22,21,0.7,0,0k0473,2015.04.14,84,23,D,C,1,0,No Hint,Unknown,,bl,bl,1.283333,261.7167,4006,4,1,FALSE,0,6,1,2,4006.04,,40,3,2,1,TEST,,,4.739219713,39,53,45,22,21,0.7,0,0k0473,2015.04.14,85,23,B,D,1,0,No Hint,Unknown,1,0,bl,0.7833333,262.5,4006,4,1,FALSE,0,6,0,1,4006.02,,40,3,2,1,TEST,,,4.739219713,39,53,45,22,21,0.7,0,0k0473,2015.04.14,86,24,A,A,1,0,No Hint,Unknown,,bl,bl,3.333333,270.8667,4006,4,1,FALSE,0,6,1,1,4006.01,,40,3,2,1,TEST,ACDB,Center Embedded,4.739219713,39,53,45,22,21,0.7,0,0k0473,2015.04.14,87,24,C,B,1,0,No Hint,Unknown,,bl,bl,4.816667,275.6833,4006,4,1,FALSE,0,6,4,3,4006.03,,40,3,2,1,TEST,,,4.739219713,39,53,45,22,21,0.7,0,0k0473,2015.04.14,88,24,D,C,1,0,No Hint,Unknown,,bl,bl,2.633333,278.3167,4006,4,1,FALSE,0,6,2,4,4006.04,,40,3,2,1,TEST,,,4.739219713,39,53,45,22,21,0.7,0,0k0473,2015.04.14,89,24,B,D,1,0,No Hint,Unknown,1,0,bl,3.05,281.3667,4006,4,1,FALSE,0,6,3,2,4006.02,,40,3,2,1,TEST,,,4.739219713,39,53,45,22,21,0.7,0,0k0473,2015.04.14,90,25,A,A,1,0,No Hint,Unknown,,bl,bl,7,293.4833,4006,4,1,FALSE,0,6,2,2,4006.01,,40,3,2,1,TEST,ACDB,Center Embedded,4.739219713,39,53,45,22,21,0.7,0,0k0473,2015.04.14,91,25,C,B,1,0,No Hint,Unknown,,bl,bl,1.166667,294.65,4006,4,1,FALSE,0,6,1,5,4006.03,,40,3,2,1,TEST,,,4.739219713,39,53,45,22,21,0.7,0,0k0473,2015.04.14,92,25,D,C,1,0,No Hint,Unknown,,bl,bl,1.116667,295.7667,4006,4,1,FALSE,0,6,0,1,4006.04,,40,3,2,1,TEST,,,4.739219713,39,53,45,22,21,0.7,0,0k0473,2015.04.14,93,25,B,D,1,0,No Hint,Unknown,1,0,bl,1.116667,296.8833,4006,4,1,FALSE,0,6,5,0,4006.02,,40,3,2,1,TEST,,,4.739219713,39,53,45,22,21,0.7,0,0k0473,2015.04.14,94,26,A,A,1,0,No Hint,Unknown,,bl,bl,2.35,304.5,4006,4,1,FALSE,0,6,4,4,4006.01,,40,3,2,1,TEST,ACDB,Center Embedded,4.739219713,39,53,45,22,21,0.7,0,0k0473,2015.04.14,95,26,C,B,1,0,No Hint,Unknown,,bl,bl,2.183333,306.6833,4006,4,1,FALSE,0,6,5,1,4006.03,,40,3,2,1,TEST,,,4.739219713,39,53,45,22,21,0.7,0,0k0473,2015.04.14,96,26,D,C,1,0,No Hint,Unknown,,bl,bl,2.05,308.7333,4006,4,1,FALSE,0,6,3,5,4006.04,,40,3,2,1,TEST,,,4.739219713,39,53,45,22,21,0.7,0,0k0473,2015.04.14,97,26,B,D,1,0,No Hint,Unknown,1,0,bl,1.55,310.2833,4006,4,1,FALSE,0,6,1,3,4006.02,,40,3,2,1,TEST,,,4.739219713,39,53,45,22,21,0.7,0,0k0473,2015.04.14,103,29,A,A,1,0,No Hint,Unknown,,bl,bl,2.833333,343.5667,4006,4,1,FALSE,0,6,2,2,4006.01,,40,3,2,1,TEST,ACDB,Center Embedded,4.739219713,39,53,45,22,21,0.7,0,0k0473,2015.04.14,104,29,C,B,1,0,No Hint,Unknown,,bl,bl,1.4,344.9667,4006,4,1,FALSE,0,6,0,3,4006.03,,40,3,2,1,TEST,,,4.739219713,39,53,45,22,21,0.7,0,0k0473,2015.04.14,105,29,D,C,1,0,No Hint,Unknown,,bl,bl,1,345.9667,4006,4,1,FALSE,0,6,4,0,4006.04,,40,3,2,1,TEST,,,4.739219713,39,53,45,22,21,0.7,0,0k0473,2015.04.14,106,29,B,D,1,0,No Hint,Unknown,1,0,bl,0.5,346.4667,4006,4,1,FALSE,0,6,3,4,4006.02,,40,3,2,1,TEST,,,4.739219713,39,53,45,22,21,0.7,0,0k0473,2015.04.14,132,37,A,A,1,0,No Hint,Unknown,,bl,bl,3.816667,443.7167,4006,4,1,FALSE,0,6,2,2,4006.01,,40,3,2,1,TEST,ACDB,Center Embedded,4.739219713,39,53,45,22,21,0.7,0,0k0473,2015.04.14,133,37,C,B,1,0,No Hint,Unknown,,bl,bl,1.7,445.4167,4006,4,1,FALSE,0,6,0,4,4006.03,,40,3,2,1,TEST,,,4.739219713,39,53,45,22,21,0.7,0,0k0473,2015.04.14,134,37,D,C,1,0,No Hint,Unknown,,bl,bl,1.366667,446.7833,4006,4,1,FALSE,0,6,1,0,4006.04,,40,3,2,1,TEST,,,4.739219713,39,53,45,22,21,0.7,0,0k0473,2015.04.14,135,37,B,D,1,0,No Hint,Unknown,1,0,bl,0.55,447.3333,4006,4,1,FALSE,0,6,4,1,4006.02,,40,3,2,1,TEST,,,4.739219713,39,53,45,22,21,0.7,0,0k0473,2015.04.14,136,38,A,A,1,0,No Hint,Unknown,,bl,bl,2.033333,454.0833,4006,4,1,FALSE,0,6,4,4,4006.01,,40,3,2,1,TEST,ACDB,Center Embedded,4.739219713,39,53,45,22,21,0.7,0,0k0473,2015.04.14,137,38,C,B,1,0,No Hint,Unknown,,bl,bl,1.483333,455.5667,4006,4,1,FALSE,0,6,2,5,4006.03,,40,3,2,1,TEST,,,4.739219713,39,53,45,22,21,0.7,0,0k0473,2015.04.14,138,38,D,C,1,0,No Hint,Unknown,,bl,bl,1.833333,457.4,4006,4,1,FALSE,0,6,0,2,4006.04,,40,3,2,1,TEST,,,4.739219713,39,53,45,22,21,0.7,0,0k0473,2015.04.14,139,38,B,D,1,0,No Hint,Unknown,1,0,bl,0.7,458.1,4006,4,1,FALSE,0,6,5,0,4006.02,,40,3,2,1,TEST,,,4.739219713,39,53,45,22,21,0.7,0,0k0473,2015.04.14,140,39,A,A,1,0,No Hint,Unknown,,bl,bl,2.266667,464.9167,4006,4,1,FALSE,0,6,5,5,4006.01,,40,3,2,1,TEST,ACDB,Center Embedded,4.739219713,39,53,45,22,21,0.7,0,0k0473,2015.04.14,141,39,C,B,1,0,No Hint,Unknown,,bl,bl,1.816667,466.7333,4006,4,1,FALSE,0,6,0,4,4006.03,,40,3,2,1,TEST,,,4.739219713,39,53,45,22,21,0.7,0,0k0473,2015.04.14,142,39,D,C,1,0,No Hint,Unknown,,bl,bl,0.6833333,467.4167,4006,4,1,FALSE,0,6,2,0,4006.04,,40,3,2,1,TEST,,,4.739219713,39,53,45,22,21,0.7,0,0k0473,2015.04.14,143,39,B,D,1,0,No Hint,Unknown,1,0,bl,0.4666667,467.8833,4006,4,1,FALSE,0,6,4,2,4006.02,,40,3,2,1,TEST,,,4.739219713,39,53,45,22,21,0.7,0,0k0473,2015.04.14,144,40,A,A,1,0,No Hint,Unknown,,bl,bl,3.183333,475.4167,4006,4,1,FALSE,0,6,2,2,4006.01,,40,3,2,1,TEST,ACDB,Center Embedded,4.739219713,39,53,45,22,21,0.7,0,0k0473,2015.04.14,145,40,C,B,1,0,No Hint,Unknown,,bl,bl,0.7,476.1167,4006,4,1,FALSE,0,6,5,1,4006.03,,40,3,2,1,TEST,,,4.739219713,39,53,45,22,21,0.7,0,0k0473,2015.04.14,146,40,D,C,1,0,No Hint,Unknown,,bl,bl,0.6833333,476.8,4006,4,1,FALSE,0,6,4,5,4006.04,,40,3,2,1,TEST,,,4.739219713,39,53,45,22,21,0.7,0,0k0473,2015.04.14,147,40,B,D,1,0,No Hint,Unknown,1,0,bl,0.4333333,477.2333,4006,4,1,FALSE,0,6,1,4,4006.02,,40,3,2,1,TEST,,,4.739219713,39,53,45,22,21,0.7,0,0k0475,2015.04.01,1,1,A,A,1,0,No Hint,Unknown,,bl,bl,7.3,12.95,4006,4,1,FALSE,0,6,0,0,4006.01,,40,3,2,1,TEST ,ACDB,Center Embedded,4.980150582,33,36,28,9,17,0.25,0,0k0475,2015.04.01,2,1,C,B,1,0,No Hint,Unknown,,bl,bl,1.733333,14.6,4006,4,1,FALSE,0,6,1,5,4006.03,,40,3,2,1,TEST ,,,4.980150582,33,36,28,9,17,0.25,0,0k0475,2015.04.01,3,1,D,C,1,0,No Hint,Unknown,,bl,bl,0.45,15.05,4006,4,1,FALSE,0,6,4,1,4006.04,,40,3,2,1,TEST ,,,4.980150582,33,36,28,9,17,0.25,0,0k0475,2015.04.01,4,1,B,D,1,0,No Hint,Unknown,1,0,bl,0.6,15.65,4006,4,1,FALSE,0,6,5,4,4006.02,,40,3,2,1,TEST ,,,4.980150582,33,36,28,9,17,0.25,0,0k0475,2015.04.01,6,3,A,A,1,0,No Hint,Unknown,,bl,bl,3.116667,38.3,4006,4,1,FALSE,0,6,3,3,4006.01,,40,3,2,1,TEST ,ADDB,Repeated Bracket Error,4.980150582,33,36,28,9,17,0.25,0,0k0475,2015.04.01,7,3,D,B,1,0,No Hint,Unknown,,bl,bl,1.933333,40.23333,4006,4,1,FALSE,0,6,4,0,4006.04,,40,3,2,1,TEST ,,,4.980150582,33,36,28,9,17,0.25,0,0k0475,2015.04.01,8,3,D,C,1,0,No Hint,Unknown,,bl,bl,3.816667,44.05,4006,4,1,FALSE,0,6,4,1,4006.04,,40,3,2,1,TEST ,,,4.980150582,33,36,28,9,17,0.25,0,0k0475,2015.04.01,9,3,B,D,1,0,No Hint,Unknown,1,0,bl,0.9833333,45.03333,4006,4,1,FALSE,0,6,0,4,4006.02,,40,3,2,1,TEST ,,,4.980150582,33,36,28,9,17,0.25,0,0k0475,2015.04.01,10,4,A,A,1,0,No Hint,Unknown,,bl,bl,2.8,52.61667,4006,4,1,FALSE,0,6,2,2,4006.01,,40,3,2,1,TEST ,ACBD,Crossed,4.980150582,33,36,28,9,17,0.25,0,0k0475,2015.04.01,11,4,C,B,1,0,No Hint,Unknown,,bl,bl,0.55,53.16667,4006,4,1,FALSE,0,6,1,0,4006.03,,40,3,2,1,TEST ,,,4.980150582,33,36,28,9,17,0.25,0,0k0475,2015.04.01,12,4,B,C,1,0,No Hint,Unknown,,bl,bl,0.5833333,53.75,4006,4,1,FALSE,0,6,0,1,4006.02,,40,3,2,1,TEST ,,,4.980150582,33,36,28,9,17,0.25,0,0k0475,2015.04.01,13,4,D,D,1,0,No Hint,Unknown,1,0,bl,0.55,54.3,4006,4,1,FALSE,0,6,3,3,4006.04,,40,3,2,1,TEST ,,,4.980150582,33,36,28,9,17,0.25,0,0k0475,2015.04.01,14,5,A,A,1,0,No Hint,Unknown,,bl,bl,2.2,61.35,4006,4,1,FALSE,0,6,2,2,4006.01,,40,3,2,1,TEST ,ABCD,Tail Embedded,4.980150582,33,36,28,9,17,0.25,0,0k0475,2015.04.01,15,5,B,B,1,0,No Hint,Unknown,,bl,bl,1.2,62.55,4006,4,1,FALSE,0,6,0,0,4006.02,,40,3,2,1,TEST ,,,4.980150582,33,36,28,9,17,0.25,0,0k0475,2015.04.01,16,5,C,C,1,0,No Hint,Unknown,,bl,bl,1.333333,63.88333,4006,4,1,FALSE,0,6,3,3,4006.03,,40,3,2,1,TEST ,,,4.980150582,33,36,28,9,17,0.25,0,0k0475,2015.04.01,17,5,D,D,1,0,No Hint,Unknown,1,0,bl,0.65,64.53333,4006,4,1,FALSE,0,6,5,5,4006.04,,40,3,2,1,TEST ,,,4.980150582,33,36,28,9,17,0.25,0,0k0475,2015.04.01,26,8,A,A,1,0,No Hint,Unknown,,bl,bl,2.7,114.7667,4006,4,1,FALSE,0,6,1,1,4006.01,,40,3,2,1,TEST ,AABC,Repeated Bracket Error,4.980150582,33,36,28,9,17,0.25,0,0k0475,2015.04.01,27,8,A,B,1,0,No Hint,Unknown,,bl,bl,2.1,116.8667,4006,4,1,FALSE,0,6,1,0,4006.01,,40,3,2,1,TEST ,,,4.980150582,33,36,28,9,17,0.25,0,0k0475,2015.04.01,28,8,B,C,1,0,No Hint,Unknown,,bl,bl,1.016667,117.8833,4006,4,1,FALSE,0,6,0,4,4006.02,,40,3,2,1,TEST ,,,4.980150582,33,36,28,9,17,0.25,0,0k0475,2015.04.01,29,8,C,D,1,0,No Hint,Unknown,1,0,bl,1.25,119.1333,4006,4,1,FALSE,0,6,4,5,4006.03,,40,3,2,1,TEST ,,,4.980150582,33,36,28,9,17,0.25,0,0k0475,2015.04.01,31,10,A,A,1,0,No Hint,Unknown,,bl,bl,4.95,177.05,4006,4,1,FALSE,0,6,3,3,4006.01,,40,3,2,1,TEST ,ADCB,ALL OTHER,4.980150582,33,36,28,9,17,0.25,0,0k0475,2015.04.01,32,10,D,B,1,0,No Hint,Unknown,,bl,bl,2.216667,179.2667,4006,4,1,FALSE,0,6,4,2,4006.04,,40,3,2,1,TEST ,,,4.980150582,33,36,28,9,17,0.25,0,0k0475,2015.04.01,33,10,C,C,1,0,No Hint,Unknown,,bl,bl,0.9333333,180.2,4006,4,1,FALSE,0,6,0,0,4006.03,,40,3,2,1,TEST ,,,4.980150582,33,36,28,9,17,0.25,0,0k0475,2015.04.01,34,10,B,D,1,0,No Hint,Unknown,1,0,bl,0.6666667,180.8667,4006,4,1,FALSE,0,6,2,4,4006.02,,40,3,2,1,TEST ,,,4.980150582,33,36,28,9,17,0.25,0,0k0475,2015.04.01,37,12,D,A,1,0,No Hint,Unknown,,bl,bl,2.383333,203.25,4006,4,1,FALSE,0,6,2,4,4006.04,,40,3,2,1,TEST ,DCBA,ALL OTHER,4.980150582,33,36,28,9,17,0.25,0,0k0475,2015.04.01,38,12,C,B,1,0,No Hint,Unknown,,bl,bl,0.85,204.1,4006,4,1,FALSE,0,6,1,0,4006.03,,40,3,2,1,TEST ,,,4.980150582,33,36,28,9,17,0.25,0,0k0475,2015.04.01,39,12,B,C,1,0,No Hint,Unknown,,bl,bl,0.7166667,204.8167,4006,4,1,FALSE,0,6,0,1,4006.02,,40,3,2,1,TEST ,,,4.980150582,33,36,28,9,17,0.25,0,0k0475,2015.04.01,40,12,A,D,1,0,No Hint,Unknown,1,0,bl,0.65,205.4667,4006,4,1,FALSE,0,6,4,2,4006.01,,40,3,2,1,TEST ,,,4.980150582,33,36,28,9,17,0.25,0,0k0475,2015.04.01,41,13,B,A,1,0,No Hint,Unknown,,bl,bl,2.283333,239.8,4006,4,1,FALSE,0,6,4,2,4006.02,,40,3,2,1,TEST ,BDCA,ALL OTHER,4.980150582,33,36,28,9,17,0.25,0,0k0475,2015.04.01,42,13,D,B,1,0,No Hint,Unknown,,bl,bl,1.166667,240.9667,4006,4,1,FALSE,0,6,3,4,4006.04,,40,3,2,1,TEST ,,,4.980150582,33,36,28,9,17,0.25,0,0k0475,2015.04.01,43,13,C,C,1,0,No Hint,Unknown,,bl,bl,0.7,241.6667,4006,4,1,FALSE,0,6,0,0,4006.03,,40,3,2,1,TEST ,,,4.980150582,33,36,28,9,17,0.25,0,0k0475,2015.04.01,44,13,A,D,1,0,No Hint,Unknown,1,0,bl,0.7833333,242.45,4006,4,1,FALSE,0,6,2,3,4006.01,,40,3,2,1,TEST ,,,4.980150582,33,36,28,9,17,0.25,0,0k0475,2015.04.01,47,15,C,A,1,0,No Hint,Unknown,,bl,bl,1.5,258.5833,4006,4,1,FALSE,0,6,1,5,4006.03,,40,3,2,1,TEST ,CBDA,ALL OTHER,4.980150582,33,36,28,9,17,0.25,0,0k0475,2015.04.01,48,15,B,B,1,0,No Hint,Unknown,,bl,bl,1.2,259.7833,4006,4,1,FALSE,0,6,3,3,4006.02,,40,3,2,1,TEST ,,,4.980150582,33,36,28,9,17,0.25,0,0k0475,2015.04.01,49,15,D,C,1,0,No Hint,Unknown,,bl,bl,1.133333,260.9167,4006,4,1,FALSE,0,6,4,1,4006.04,,40,3,2,1,TEST ,,,4.980150582,33,36,28,9,17,0.25,0,0k0475,2015.04.01,50,15,A,D,1,0,No Hint,Unknown,1,0,bl,1.1,262.0167,4006,4,1,FALSE,0,6,5,4,4006.01,,40,3,2,1,TEST ,,,4.980150582,33,36,28,9,17,0.25,0,0k0475,2015.04.01,51,16,A,A,1,0,No Hint,Unknown,,bl,bl,5.866667,294.9,4006,4,1,FALSE,0,6,1,1,4006.01,,40,3,2,1,TEST ,ACBD,Crossed,4.980150582,33,36,28,9,17,0.25,0,0k0475,2015.04.01,52,16,C,B,1,0,No Hint,Unknown,,bl,bl,1.683333,296.5833,4006,4,1,FALSE,0,6,4,3,4006.03,,40,3,2,1,TEST ,,,4.980150582,33,36,28,9,17,0.25,0,0k0475,2015.04.01,53,16,B,C,1,0,No Hint,Unknown,,bl,bl,1.133333,297.7167,4006,4,1,FALSE,0,6,3,4,4006.02,,40,3,2,1,TEST ,,,4.980150582,33,36,28,9,17,0.25,0,0k0475,2015.04.01,54,16,D,D,1,0,No Hint,Unknown,1,0,bl,0.75,298.4667,4006,4,1,FALSE,0,6,5,5,4006.04,,40,3,2,1,TEST ,,,4.980150582,33,36,28,9,17,0.25,0,0k0475,2015.04.01,55,17,D,A,1,0,No Hint,Unknown,,bl,bl,1.466667,304.5167,4006,4,1,FALSE,0,6,2,3,4006.04,,40,3,2,1,TEST ,DBCA,ALL OTHER,4.980150582,33,36,28,9,17,0.25,0,0k0475,2015.04.01,56,17,B,B,1,0,No Hint,Unknown,,bl,bl,0.8333333,305.35,4006,4,1,FALSE,0,6,5,5,4006.02,,40,3,2,1,TEST ,,,4.980150582,33,36,28,9,17,0.25,0,0k0475,2015.04.01,57,17,C,C,1,0,No Hint,Unknown,,bl,bl,0.6333333,305.9833,4006,4,1,FALSE,0,6,4,4,4006.03,,40,3,2,1,TEST ,,,4.980150582,33,36,28,9,17,0.25,0,0k0475,2015.04.01,58,17,A,D,1,0,No Hint,Unknown,1,0,bl,0.65,306.6333,4006,4,1,FALSE,0,6,3,2,4006.01,,40,3,2,1,TEST ,,,4.980150582,33,36,28,9,17,0.25,0,0k0475,2015.04.01,61,19,D,A,1,0,No Hint,Unknown,,bl,bl,2.283333,329.8167,4006,4,1,FALSE,0,6,3,4,4006.04,,40,3,2,1,TEST ,DABC,ALL OTHER,4.980150582,33,36,28,9,17,0.25,0,0k0475,2015.04.01,62,19,A,B,1,0,No Hint,Unknown,,bl,bl,0.6833333,330.5,4006,4,1,FALSE,0,6,4,1,4006.01,,40,3,2,1,TEST ,,,4.980150582,33,36,28,9,17,0.25,0,0k0475,2015.04.01,63,19,B,C,1,0,No Hint,Unknown,,bl,bl,0.5166667,331.0167,4006,4,1,FALSE,0,6,1,2,4006.02,,40,3,2,1,TEST ,,,4.980150582,33,36,28,9,17,0.25,0,0k0475,2015.04.01,64,19,C,D,1,0,No Hint,Unknown,1,0,bl,0.5666667,331.5833,4006,4,1,FALSE,0,6,2,3,4006.03,,40,3,2,1,TEST ,,,4.980150582,33,36,28,9,17,0.25,0,0k0475,2015.04.01,65,20,B,A,1,0,No Hint,Unknown,,bl,bl,1.433333,391.8333,4006,4,1,FALSE,0,6,2,3,4006.02,,40,3,2,1,TEST ,BDCA,ALL OTHER,4.980150582,33,36,28,9,17,0.25,0,0k0475,2015.04.01,66,20,D,B,1,0,No Hint,Unknown,,bl,bl,0.5833333,392.4167,4006,4,1,FALSE,0,6,1,2,4006.04,,40,3,2,1,TEST ,,,4.980150582,33,36,28,9,17,0.25,0,0k0475,2015.04.01,67,20,C,C,1,0,No Hint,Unknown,,bl,bl,0.6333333,393.05,4006,4,1,FALSE,0,6,0,0,4006.03,,40,3,2,1,TEST ,,,4.980150582,33,36,28,9,17,0.25,0,0k0475,2015.04.01,68,20,A,D,1,0,No Hint,Unknown,1,0,bl,0.4666667,393.5167,4006,4,1,FALSE,0,6,3,1,4006.01,,40,3,2,1,TEST ,,,4.980150582,33,36,28,9,17,0.25,0,0k0475,2015.04.01,69,21,C,A,1,0,No Hint,Unknown,,bl,bl,1.333333,400.5,4006,4,1,FALSE,0,6,4,3,4006.03,,40,3,2,1,TEST ,CABD,Center Embedded,4.980150582,33,36,28,9,17,0.25,0,0k0475,2015.04.01,70,21,A,B,1,0,No Hint,Unknown,,bl,bl,0.6666667,401.1667,4006,4,1,FALSE,0,6,3,0,4006.01,,40,3,2,1,TEST ,,,4.980150582,33,36,28,9,17,0.25,0,0k0475,2015.04.01,71,21,B,C,1,0,No Hint,Unknown,,bl,bl,0.6166667,401.7833,4006,4,1,FALSE,0,6,0,4,4006.02,,40,3,2,1,TEST ,,,4.980150582,33,36,28,9,17,0.25,0,0k0475,2015.04.01,72,21,D,D,1,0,No Hint,Unknown,1,0,bl,0.5666667,402.35,4006,4,1,FALSE,0,6,1,1,4006.04,,40,3,2,1,TEST ,,,4.980150582,33,36,28,9,17,0.25,0,0k0475,2015.04.01,74,23,A,A,1,0,No Hint,Unknown,,bl,bl,1.566667,421.2167,4006,4,1,FALSE,0,6,0,0,4006.01,,40,3,2,1,TEST ,ADCB,ALL OTHER,4.980150582,33,36,28,9,17,0.25,0,0k0475,2015.04.01,75,23,D,B,1,0,No Hint,Unknown,,bl,bl,0.5666667,421.7833,4006,4,1,FALSE,0,6,1,5,4006.04,,40,3,2,1,TEST ,,,4.980150582,33,36,28,9,17,0.25,0,0k0475,2015.04.01,76,23,C,C,1,0,No Hint,Unknown,,bl,bl,0.55,422.3333,4006,4,1,FALSE,0,6,4,4,4006.03,,40,3,2,1,TEST ,,,4.980150582,33,36,28,9,17,0.25,0,0k0475,2015.04.01,77,23,B,D,1,0,No Hint,Unknown,1,0,bl,0.5,422.8333,4006,4,1,FALSE,0,6,5,1,4006.02,,40,3,2,1,TEST ,,,4.980150582,33,36,28,9,17,0.25,0,0k0475,2015.04.01,79,25,C,A,1,0,No Hint,Unknown,,bl,bl,1.183333,455.2167,4006,4,1,FALSE,0,6,1,4,4006.03,,40,3,2,1,TEST ,CDAB,Tail Embedded,4.980150582,33,36,28,9,17,0.25,0,0k0475,2015.04.01,80,25,D,B,1,0,No Hint,Unknown,,bl,bl,1.133333,456.35,4006,4,1,FALSE,0,6,3,5,4006.04,,40,3,2,1,TEST ,,,4.980150582,33,36,28,9,17,0.25,0,0k0475,2015.04.01,81,25,A,C,1,0,No Hint,Unknown,,bl,bl,0.6333333,456.9833,4006,4,1,FALSE,0,6,4,1,4006.01,,40,3,2,1,TEST ,,,4.980150582,33,36,28,9,17,0.25,0,0k0475,2015.04.01,82,25,B,D,1,0,No Hint,Unknown,1,0,bl,0.5,457.4833,4006,4,1,FALSE,0,6,5,3,4006.02,,40,3,2,1,TEST ,,,4.980150582,33,36,28,9,17,0.25,0,0k0475,2015.04.01,87,27,C,A,1,0,No Hint,Unknown,,bl,bl,1.45,483.25,4006,4,1,FALSE,0,6,0,4,4006.03,,40,3,2,1,TEST ,CDAB,Tail Embedded,4.980150582,33,36,28,9,17,0.25,0,0k0475,2015.04.01,88,27,D,B,1,0,No Hint,Unknown,,bl,bl,0.45,483.7,4006,4,1,FALSE,0,6,1,5,4006.04,,40,3,2,1,TEST ,,,4.980150582,33,36,28,9,17,0.25,0,0k0475,2015.04.01,89,27,A,C,1,0,No Hint,Unknown,,bl,bl,0.4666667,484.1667,4006,4,1,FALSE,0,6,4,0,4006.01,,40,3,2,1,TEST ,,,4.980150582,33,36,28,9,17,0.25,0,0k0475,2015.04.01,90,27,B,D,1,0,No Hint,Unknown,1,0,bl,0.4666667,484.6333,4006,4,1,FALSE,0,6,5,1,4006.02,,40,3,2,1,TEST ,,,4.980150582,33,36,28,9,17,0.25,0,0k0475,2015.04.01,106,35,C,A,1,0,No Hint,Unknown,,bl,bl,2.733333,617.3167,4006,4,1,FALSE,0,6,3,4,4006.03,,40,3,2,1,TEST ,CABD,Center Embedded,4.980150582,33,36,28,9,17,0.25,0,0k0475,2015.04.01,107,35,A,B,1,0,No Hint,Unknown,,bl,bl,1.25,618.5667,4006,4,1,FALSE,0,6,4,1,4006.01,,40,3,2,1,TEST ,,,4.980150582,33,36,28,9,17,0.25,0,0k0475,2015.04.01,108,35,B,C,1,0,No Hint,Unknown,,bl,bl,0.8666667,619.4333,4006,4,1,FALSE,0,6,1,3,4006.02,,40,3,2,1,TEST ,,,4.980150582,33,36,28,9,17,0.25,0,0k0475,2015.04.01,109,35,D,D,1,0,No Hint,Unknown,1,0,bl,0.6666667,620.1,4006,4,1,FALSE,0,6,2,2,4006.04,,40,3,2,1,TEST ,,,4.980150582,33,36,28,9,17,0.25,0,0k0475,2015.04.01,110,36,B,A,1,0,No Hint,Unknown,,bl,bl,1.133333,626.0667,4006,4,1,FALSE,0,6,0,2,4006.02,,40,3,2,1,TEST ,BCAD,ALL OTHER,4.980150582,33,36,28,9,17,0.25,0,0k0475,2015.04.01,111,36,C,B,1,0,No Hint,Unknown,,bl,bl,0.85,626.9167,4006,4,1,FALSE,0,6,1,0,4006.03,,40,3,2,1,TEST ,,,4.980150582,33,36,28,9,17,0.25,0,0k0475,2015.04.01,112,36,A,C,1,0,No Hint,Unknown,,bl,bl,0.4666667,627.3833,4006,4,1,FALSE,0,6,2,1,4006.01,,40,3,2,1,TEST ,,,4.980150582,33,36,28,9,17,0.25,0,0k0475,2015.04.01,113,36,D,D,1,0,No Hint,Unknown,1,0,bl,0.5166667,627.9,4006,4,1,FALSE,0,6,5,5,4006.04,,40,3,2,1,TEST ,,,4.980150582,33,36,28,9,17,0.25,0,0k0475,2015.04.01,115,38,A,A,1,0,No Hint,Unknown,,bl,bl,4.25,646.75,4006,4,1,FALSE,0,6,4,4,4006.01,,40,3,2,1,TEST ,ADCB,ALL OTHER,4.980150582,33,36,28,9,17,0.25,0,0k0475,2015.04.01,116,38,D,B,1,0,No Hint,Unknown,,bl,bl,1.85,648.6,4006,4,1,FALSE,0,6,5,1,4006.04,,40,3,2,1,TEST ,,,4.980150582,33,36,28,9,17,0.25,0,0k0475,2015.04.01,117,38,C,C,1,0,No Hint,Unknown,,bl,bl,1.15,649.75,4006,4,1,FALSE,0,6,2,2,4006.03,,40,3,2,1,TEST ,,,4.980150582,33,36,28,9,17,0.25,0,0k0475,2015.04.01,118,38,B,D,1,0,No Hint,Unknown,1,0,bl,0.7166667,650.4667,4006,4,1,FALSE,0,6,1,5,4006.02,,40,3,2,1,TEST ,,,4.980150582,33,36,28,9,17,0.25,0,0k0478,2015.03.31,5,2,A,A,1,0,No Hint,Unknown,,bl,bl,4.916667,21.43333,4006,4,1,FALSE,0,6,5,5,4006.01,,40,3,2,1,TEST ,ABCD,Tail Embedded,4.919917864,47,34,52,22,20,0.55,0,0k0478,2015.03.31,6,2,B,B,1,0,No Hint,Unknown,,bl,bl,5.083333,26.51667,4006,4,1,FALSE,0,6,3,3,4006.02,,40,3,2,1,TEST ,,,4.919917864,47,34,52,22,20,0.55,0,0k0478,2015.03.31,7,2,C,C,1,0,No Hint,Unknown,,bl,bl,5.6,32.11667,4006,4,1,FALSE,0,6,1,1,4006.03,,40,3,2,1,TEST ,,,4.919917864,47,34,52,22,20,0.55,0,0k0478,2015.03.31,8,2,D,D,1,0,No Hint,Unknown,1,0,bl,0.95,33.06667,4006,4,1,FALSE,0,6,4,4,4006.04,,40,3,2,1,TEST ,,,4.919917864,47,34,52,22,20,0.55,0,0k0478,2015.03.31,17,5,C,A,1,0,No Hint,Unknown,,bl,bl,4.016667,72.83333,4006,4,1,FALSE,0,6,4,2,4006.03,,40,3,2,1,TEST ,CABD,Center Embedded,4.919917864,47,34,52,22,20,0.55,0,0k0478,2015.03.31,18,5,A,B,1,0,No Hint,Unknown,,bl,bl,3.866667,76.7,4006,4,1,FALSE,0,6,2,1,4006.01,,40,3,2,1,TEST ,,,4.919917864,47,34,52,22,20,0.55,0,0k0478,2015.03.31,19,5,B,C,1,0,No Hint,Unknown,,bl,bl,2.016667,78.71667,4006,4,1,FALSE,0,6,1,4,4006.02,,40,3,2,1,TEST ,,,4.919917864,47,34,52,22,20,0.55,0,0k0478,2015.03.31,20,5,D,D,1,0,No Hint,Unknown,1,0,bl,0.5,79.21667,4006,4,1,FALSE,0,6,5,5,4006.04,,40,3,2,1,TEST ,,,4.919917864,47,34,52,22,20,0.55,0,0k0478,2015.03.31,21,6,A,A,1,0,No Hint,Unknown,,bl,bl,2.683333,89.16667,4006,4,1,FALSE,0,6,3,3,4006.01,,40,3,2,1,TEST ,ACBD,Crossed,4.919917864,47,34,52,22,20,0.55,0,0k0478,2015.03.31,22,6,C,B,1,0,No Hint,Unknown,,bl,bl,2.95,92.11667,4006,4,1,FALSE,0,6,2,4,4006.03,,40,3,2,1,TEST ,,,4.919917864,47,34,52,22,20,0.55,0,0k0478,2015.03.31,23,6,B,C,1,0,No Hint,Unknown,,bl,bl,2.733333,94.85,4006,4,1,FALSE,0,6,4,2,4006.02,,40,3,2,1,TEST ,,,4.919917864,47,34,52,22,20,0.55,0,0k0478,2015.03.31,24,6,D,D,1,0,No Hint,Unknown,1,0,bl,0.4833333,95.33333,4006,4,1,FALSE,0,6,5,5,4006.04,,40,3,2,1,TEST ,,,4.919917864,47,34,52,22,20,0.55,0,0k0478,2015.03.31,25,7,A,A,1,0,No Hint,Unknown,,bl,bl,5.883333,106.3833,4006,4,1,FALSE,0,6,1,1,4006.01,,40,3,2,1,TEST ,ACBD,Crossed,4.919917864,47,34,52,22,20,0.55,0,0k0478,2015.03.31,26,7,C,B,1,0,No Hint,Unknown,,bl,bl,3.516667,109.9,4006,4,1,FALSE,0,6,2,0,4006.03,,40,3,2,1,TEST ,,,4.919917864,47,34,52,22,20,0.55,0,0k0478,2015.03.31,27,7,B,C,1,0,No Hint,Unknown,,bl,bl,3.433333,113.3333,4006,4,1,FALSE,0,6,0,2,4006.02,,40,3,2,1,TEST ,,,4.919917864,47,34,52,22,20,0.55,0,0k0478,2015.03.31,28,7,D,D,1,0,No Hint,Unknown,1,0,bl,0.55,113.8833,4006,4,1,FALSE,0,6,3,3,4006.04,,40,3,2,1,TEST ,,,4.919917864,47,34,52,22,20,0.55,0,0k0478,2015.03.31,33,9,A,A,1,0,No Hint,Unknown,,bl,bl,3.916667,141.1,4006,4,1,FALSE,0,6,0,0,4006.01,,40,3,2,1,TEST ,ACBD,Crossed,4.919917864,47,34,52,22,20,0.55,0,0k0478,2015.03.31,34,9,C,B,1,0,No Hint,Unknown,,bl,bl,1.716667,142.8167,4006,4,1,FALSE,0,6,4,3,4006.03,,40,3,2,1,TEST ,,,4.919917864,47,34,52,22,20,0.55,0,0k0478,2015.03.31,35,9,B,C,1,0,No Hint,Unknown,,bl,bl,1.65,144.4667,4006,4,1,FALSE,0,6,3,4,4006.02,,40,3,2,1,TEST ,,,4.919917864,47,34,52,22,20,0.55,0,0k0478,2015.03.31,36,9,D,D,1,0,No Hint,Unknown,1,0,bl,1.25,145.7167,4006,4,1,FALSE,0,6,5,5,4006.04,,40,3,2,1,TEST ,,,4.919917864,47,34,52,22,20,0.55,0,0k0478,2015.03.31,42,12,A,A,1,0,No Hint,Unknown,,bl,bl,3.333333,182.7167,4006,4,1,FALSE,0,6,4,4,4006.01,,40,3,2,1,TEST ,ACBD,Crossed,4.919917864,47,34,52,22,20,0.55,0,0k0478,2015.03.31,43,12,C,B,1,0,No Hint,Unknown,,bl,bl,2.983333,185.7,4006,4,1,FALSE,0,6,2,3,4006.03,,40,3,2,1,TEST ,,,4.919917864,47,34,52,22,20,0.55,0,0k0478,2015.03.31,44,12,B,C,1,0,No Hint,Unknown,,bl,bl,2.65,188.35,4006,4,1,FALSE,0,6,3,2,4006.02,,40,3,2,1,TEST ,,,4.919917864,47,34,52,22,20,0.55,0,0k0478,2015.03.31,45,12,D,D,1,0,No Hint,Unknown,1,0,bl,1.133333,189.4833,4006,4,1,FALSE,0,6,5,5,4006.04,,40,3,2,1,TEST ,,,4.919917864,47,34,52,22,20,0.55,0,0k0478,2015.03.31,50,14,C,A,1,0,No Hint,Unknown,,bl,bl,4.216667,217.45,4006,4,1,FALSE,0,6,3,1,4006.03,,40,3,2,1,TEST ,CABD,Center Embedded,4.919917864,47,34,52,22,20,0.55,0,0k0478,2015.03.31,51,14,A,B,1,0,No Hint,Unknown,,bl,bl,8.45,225.9,4006,4,1,FALSE,0,6,1,4,4006.01,,40,3,2,1,TEST ,,,4.919917864,47,34,52,22,20,0.55,0,0k0478,2015.03.31,52,14,B,C,1,0,No Hint,Unknown,,bl,bl,2.916667,228.8167,4006,4,1,FALSE,0,6,4,3,4006.02,,40,3,2,1,TEST ,,,4.919917864,47,34,52,22,20,0.55,0,0k0478,2015.03.31,53,14,D,D,1,0,No Hint,Unknown,1,0,bl,0.75,229.5667,4006,4,1,FALSE,0,6,5,5,4006.04,,40,3,2,1,TEST ,,,4.919917864,47,34,52,22,20,0.55,0,0k0478,2015.03.31,54,15,C,A,1,0,No Hint,Unknown,,bl,bl,2.866667,253.6167,4006,4,1,FALSE,0,6,0,2,4006.03,,40,3,2,1,TEST ,CABD,Center Embedded,4.919917864,47,34,52,22,20,0.55,0,0k0478,2015.03.31,55,15,A,B,1,0,No Hint,Unknown,,bl,bl,2.783333,256.4,4006,4,1,FALSE,0,6,2,1,4006.01,,40,3,2,1,TEST ,,,4.919917864,47,34,52,22,20,0.55,0,0k0478,2015.03.31,56,15,B,C,1,0,No Hint,Unknown,,bl,bl,2.383333,258.7833,4006,4,1,FALSE,0,6,1,0,4006.02,,40,3,2,1,TEST ,,,4.919917864,47,34,52,22,20,0.55,0,0k0478,2015.03.31,57,15,D,D,1,0,No Hint,Unknown,1,0,bl,0.5333333,259.3167,4006,4,1,FALSE,0,6,3,3,4006.04,,40,3,2,1,TEST ,,,4.919917864,47,34,52,22,20,0.55,0,0k0478,2015.03.31,58,16,C,A,1,0,No Hint,Unknown,,bl,bl,1.95,265.7333,4006,4,1,FALSE,0,6,0,1,4006.03,,40,3,2,1,TEST ,CABD,Center Embedded,4.919917864,47,34,52,22,20,0.55,0,0k0478,2015.03.31,59,16,A,B,1,0,No Hint,Unknown,,bl,bl,1.583333,267.3167,4006,4,1,FALSE,0,6,1,2,4006.01,,40,3,2,1,TEST ,,,4.919917864,47,34,52,22,20,0.55,0,0k0478,2015.03.31,60,16,B,C,1,0,No Hint,Unknown,,bl,bl,1.283333,268.6,4006,4,1,FALSE,0,6,2,0,4006.02,,40,3,2,1,TEST ,,,4.919917864,47,34,52,22,20,0.55,0,0k0478,2015.03.31,61,16,D,D,1,0,No Hint,Unknown,1,0,bl,0.4666667,269.0667,4006,4,1,FALSE,0,6,5,5,4006.04,,40,3,2,1,TEST ,,,4.919917864,47,34,52,22,20,0.55,0,0k0478,2015.03.31,78,22,A,A,1,0,No Hint,Unknown,,bl,bl,1.783333,465.45,4006,4,1,FALSE,0,6,3,3,4006.01,,40,3,2,1,TEST ,ACBD,Crossed,4.919917864,47,34,52,22,20,0.55,0,0k0478,2015.03.31,79,22,C,B,1,0,No Hint,Unknown,,bl,bl,3.016667,468.4667,4006,4,1,FALSE,0,6,5,1,4006.03,,40,3,2,1,TEST ,,,4.919917864,47,34,52,22,20,0.55,0,0k0478,2015.03.31,80,22,B,C,1,0,No Hint,Unknown,,bl,bl,1.433333,469.9,4006,4,1,FALSE,0,6,1,5,4006.02,,40,3,2,1,TEST ,,,4.919917864,47,34,52,22,20,0.55,0,0k0478,2015.03.31,81,22,D,D,1,0,No Hint,Unknown,1,0,bl,0.4833333,470.3833,4006,4,1,FALSE,0,6,4,4,4006.04,,40,3,2,1,TEST ,,,4.919917864,47,34,52,22,20,0.55,0,0k0478,2015.03.31,82,23,A,A,1,0,No Hint,Unknown,,bl,bl,9.366667,485.7833,4006,4,1,FALSE,0,6,2,2,4006.01,,40,3,2,1,TEST ,ACDB,Center Embedded,4.919917864,47,34,52,22,20,0.55,0,0k0478,2015.03.31,83,23,C,B,1,0,No Hint,Unknown,,bl,bl,6.166667,491.95,4006,4,1,FALSE,0,6,1,5,4006.03,,40,3,2,1,TEST ,,,4.919917864,47,34,52,22,20,0.55,0,0k0478,2015.03.31,84,23,D,C,1,0,No Hint,Unknown,,bl,bl,2.633333,494.5833,4006,4,1,FALSE,0,6,3,1,4006.04,,40,3,2,1,TEST ,,,4.919917864,47,34,52,22,20,0.55,0,0k0478,2015.03.31,85,23,B,D,1,0,No Hint,Unknown,1,0,bl,0.6166667,495.2,4006,4,1,FALSE,0,6,5,3,4006.02,,40,3,2,1,TEST ,,,4.919917864,47,34,52,22,20,0.55,0,0k0478,2015.03.31,90,25,A,A,1,0,No Hint,Unknown,,bl,bl,4.9,520.6667,4006,4,1,FALSE,0,6,1,1,4006.01,,40,3,2,1,TEST ,ACBD,Crossed,4.919917864,47,34,52,22,20,0.55,0,0k0478,2015.03.31,91,25,C,B,1,0,No Hint,Unknown,,bl,bl,1.7,522.3667,4006,4,1,FALSE,0,6,4,0,4006.03,,40,3,2,1,TEST ,,,4.919917864,47,34,52,22,20,0.55,0,0k0478,2015.03.31,92,25,B,C,1,0,No Hint,Unknown,,bl,bl,1.45,523.8167,4006,4,1,FALSE,0,6,0,4,4006.02,,40,3,2,1,TEST ,,,4.919917864,47,34,52,22,20,0.55,0,0k0478,2015.03.31,93,25,D,D,1,0,No Hint,Unknown,1,0,bl,0.5333333,524.35,4006,4,1,FALSE,0,6,5,5,4006.04,,40,3,2,1,TEST ,,,4.919917864,47,34,52,22,20,0.55,0,0k0478,2015.03.31,94,26,A,A,1,0,No Hint,Unknown,,bl,bl,2.05,530.2667,4006,4,1,FALSE,0,6,3,3,4006.01,,40,3,2,1,TEST ,ACBD,Crossed,4.919917864,47,34,52,22,20,0.55,0,0k0478,2015.03.31,95,26,C,B,1,0,No Hint,Unknown,,bl,bl,1.916667,532.1833,4006,4,1,FALSE,0,6,4,1,4006.03,,40,3,2,1,TEST ,,,4.919917864,47,34,52,22,20,0.55,0,0k0478,2015.03.31,96,26,B,C,1,0,No Hint,Unknown,,bl,bl,1.133333,533.3167,4006,4,1,FALSE,0,6,1,4,4006.02,,40,3,2,1,TEST ,,,4.919917864,47,34,52,22,20,0.55,0,0k0478,2015.03.31,97,26,D,D,1,0,No Hint,Unknown,1,0,bl,0.4833333,533.8,4006,4,1,FALSE,0,6,2,2,4006.04,,40,3,2,1,TEST ,,,4.919917864,47,34,52,22,20,0.55,0,0k0478,2015.03.31,101,28,A,A,1,0,No Hint,Unknown,,bl,bl,9.116667,603.3333,4006,4,1,FALSE,0,6,4,4,4006.01,,40,3,2,1,TEST ,ACDB,Center Embedded,4.919917864,47,34,52,22,20,0.55,0,0k0478,2015.03.31,102,28,C,B,1,0,No Hint,Unknown,,bl,bl,0.9166667,604.25,4006,4,1,FALSE,0,6,5,1,4006.03,,40,3,2,1,TEST ,,,4.919917864,47,34,52,22,20,0.55,0,0k0478,2015.03.31,103,28,D,C,1,0,No Hint,Unknown,,bl,bl,1.433333,605.6833,4006,4,1,FALSE,0,6,0,5,4006.04,,40,3,2,1,TEST ,,,4.919917864,47,34,52,22,20,0.55,0,0k0478,2015.03.31,104,28,B,D,1,0,No Hint,Unknown,1,0,bl,0.3666667,606.05,4006,4,1,FALSE,0,6,1,0,4006.02,,40,3,2,1,TEST ,,,4.919917864,47,34,52,22,20,0.55,0,0k0478,2015.03.31,105,29,C,A,1,0,No Hint,Unknown,,bl,bl,1.816667,614.6167,4006,4,1,FALSE,0,6,3,4,4006.03,,40,3,2,1,TEST ,CADB,Crossed,4.919917864,47,34,52,22,20,0.55,0,0k0478,2015.03.31,106,29,A,B,1,0,No Hint,Unknown,,bl,bl,2.15,616.7667,4006,4,1,FALSE,0,6,4,5,4006.01,,40,3,2,1,TEST ,,,4.919917864,47,34,52,22,20,0.55,0,0k0478,2015.03.31,107,29,D,C,1,0,No Hint,Unknown,,bl,bl,1.416667,618.1833,4006,4,1,FALSE,0,6,1,3,4006.04,,40,3,2,1,TEST ,,,4.919917864,47,34,52,22,20,0.55,0,0k0478,2015.03.31,108,29,B,D,1,0,No Hint,Unknown,1,0,bl,0.55,618.7333,4006,4,1,FALSE,0,6,5,1,4006.02,,40,3,2,1,TEST ,,,4.919917864,47,34,52,22,20,0.55,0,0k0478,2015.03.31,112,31,A,A,1,0,No Hint,Unknown,,bl,bl,1.783333,723.25,4006,4,1,FALSE,0,6,1,1,4006.01,,40,3,2,1,TEST ,ACDB,Center Embedded,4.919917864,47,34,52,22,20,0.55,0,0k0478,2015.03.31,113,31,C,B,1,0,No Hint,Unknown,,bl,bl,2.333333,725.5833,4006,4,1,FALSE,0,6,3,5,4006.03,,40,3,2,1,TEST ,,,4.919917864,47,34,52,22,20,0.55,0,0k0478,2015.03.31,114,31,D,C,1,0,No Hint,Unknown,,bl,bl,1.4,726.9833,4006,4,1,FALSE,0,6,4,3,4006.04,,40,3,2,1,TEST ,,,4.919917864,47,34,52,22,20,0.55,0,0k0478,2015.03.31,115,31,B,D,1,0,No Hint,Unknown,1,0,bl,0.5,727.4833,4006,4,1,FALSE,0,6,5,4,4006.02,,40,3,2,1,TEST ,,,4.919917864,47,34,52,22,20,0.55,0,0k0478,2015.03.31,120,33,A,A,1,0,No Hint,Unknown,,bl,bl,1.283333,749.55,4006,4,1,FALSE,0,6,1,1,4006.01,,40,3,2,1,TEST ,ACDB,Center Embedded,4.919917864,47,34,52,22,20,0.55,0,0k0478,2015.03.31,121,33,C,B,1,0,No Hint,Unknown,,bl,bl,2.466667,752.0167,4006,4,1,FALSE,0,6,5,2,4006.03,,40,3,2,1,TEST ,,,4.919917864,47,34,52,22,20,0.55,0,0k0478,2015.03.31,122,33,D,C,1,0,No Hint,Unknown,,bl,bl,1.216667,753.2333,4006,4,1,FALSE,0,6,3,5,4006.04,,40,3,2,1,TEST ,,,4.919917864,47,34,52,22,20,0.55,0,0k0478,2015.03.31,123,33,B,D,1,0,No Hint,Unknown,1,0,bl,0.5333333,753.7667,4006,4,1,FALSE,0,6,2,3,4006.02,,40,3,2,1,TEST ,,,4.919917864,47,34,52,22,20,0.55,0,0k0478,2015.03.31,127,35,A,A,1,0,No Hint,Unknown,,bl,bl,2.75,794.35,4006,4,1,FALSE,0,6,1,1,4006.01,,40,3,2,1,TEST ,ACDB,Center Embedded,4.919917864,47,34,52,22,20,0.55,0,0k0478,2015.03.31,128,35,C,B,1,0,No Hint,Unknown,,bl,bl,4.733333,799.0833,4006,4,1,FALSE,0,6,4,3,4006.03,,40,3,2,1,TEST ,,,4.919917864,47,34,52,22,20,0.55,0,0k0478,2015.03.31,129,35,D,C,1,0,No Hint,Unknown,,bl,bl,1.316667,800.4,4006,4,1,FALSE,0,6,0,4,4006.04,,40,3,2,1,TEST ,,,4.919917864,47,34,52,22,20,0.55,0,0k0478,2015.03.31,130,35,B,D,1,0,No Hint,Unknown,1,0,bl,0.55,800.95,4006,4,1,FALSE,0,6,3,0,4006.02,,40,3,2,1,TEST ,,,4.919917864,47,34,52,22,20,0.55,0,0k0478,2015.03.31,132,37,C,A,1,0,No Hint,Unknown,,bl,bl,14.05,833.1667,4006,4,1,FALSE,0,6,3,5,4006.03,,40,3,2,1,TEST ,CABD,Center Embedded,4.919917864,47,34,52,22,20,0.55,0,0k0478,2015.03.31,133,37,A,B,1,0,No Hint,Unknown,,bl,bl,2.433333,835.6,4006,4,1,FALSE,0,6,5,1,4006.01,,40,3,2,1,TEST ,,,4.919917864,47,34,52,22,20,0.55,0,0k0478,2015.03.31,134,37,B,C,1,0,No Hint,Unknown,,bl,bl,1.6,837.2,4006,4,1,FALSE,0,6,1,3,4006.02,,40,3,2,1,TEST ,,,4.919917864,47,34,52,22,20,0.55,0,0k0478,2015.03.31,135,37,D,D,1,0,No Hint,Unknown,1,0,bl,0.9833333,838.1833,4006,4,1,FALSE,0,6,2,2,4006.04,,40,3,2,1,TEST ,,,4.919917864,47,34,52,22,20,0.55,0,0k0478,2015.03.31,139,39,A,A,1,0,No Hint,Unknown,,bl,bl,2.083333,865.8,4006,4,1,FALSE,0,6,0,0,4006.01,,40,3,2,1,TEST ,ACDB,Center Embedded,4.919917864,47,34,52,22,20,0.55,0,0k0478,2015.03.31,140,39,C,B,1,0,No Hint,Unknown,,bl,bl,2.466667,868.2667,4006,4,1,FALSE,0,6,2,1,4006.03,,40,3,2,1,TEST ,,,4.919917864,47,34,52,22,20,0.55,0,0k0478,2015.03.31,141,39,D,C,1,0,No Hint,Unknown,,bl,bl,2.216667,870.4833,4006,4,1,FALSE,0,6,3,2,4006.04,,40,3,2,1,TEST ,,,4.919917864,47,34,52,22,20,0.55,0,0k0478,2015.03.31,142,39,B,D,1,0,No Hint,Unknown,1,0,bl,1.433333,871.9167,4006,4,1,FALSE,0,6,1,3,4006.02,,40,3,2,1,TEST ,,,4.919917864,47,34,52,22,20,0.55,0,0k0481,2015.04.06,1,1,C,A,1,0,No Hint,Unknown,,bl,bl,11.45,26.11667,4006,4,1,FALSE,0,6,4,2,4006.03,,40,3,2,1,TEST ,CABD,Center Embedded,4.8678987,33,36,28,9,17,0.4,0,"Comp Recursion - Re-did practice because she wasn't remembering the order from training. I brought the cards over to help her with the first two, and she picked it up from there."k0481,2015.04.06,2,1,A,B,1,0,No Hint,Unknown,,bl,bl,0.8333333,26.88333,4006,4,1,FALSE,0,6,2,5,4006.01,,40,3,2,1,TEST ,,,4.8678987,33,36,28,9,17,0.4,0,"Comp Recursion - Re-did practice because she wasn't remembering the order from training. I brought the cards over to help her with the first two, and she picked it up from there."k0481,2015.04.06,3,1,B,C,1,0,No Hint,Unknown,,bl,bl,4.6,31.48333,4006,4,1,FALSE,0,6,5,4,4006.02,,40,3,2,1,TEST ,,,4.8678987,33,36,28,9,17,0.4,0,"Comp Recursion - Re-did practice because she wasn't remembering the order from training. I brought the cards over to help her with the first two, and she picked it up from there."k0481,2015.04.06,4,1,D,D,1,0,No Hint,Unknown,1,0,bl,1.266667,32.75,4006,4,1,FALSE,0,6,0,0,4006.04,,40,3,2,1,TEST ,,,4.8678987,33,36,28,9,17,0.4,0,"Comp Recursion - Re-did practice because she wasn't remembering the order from training. I brought the cards over to help her with the first two, and she picked it up from there."k0481,2015.04.06,5,2,C,A,1,0,No Hint,Unknown,,bl,bl,4.633333,42.3,4006,4,1,FALSE,0,6,0,3,4006.03,,40,3,2,1,TEST ,CABD,Center Embedded,4.8678987,33,36,28,9,17,0.4,0,"Comp Recursion - Re-did practice because she wasn't remembering the order from training. I brought the cards over to help her with the first two, and she picked it up from there."k0481,2015.04.06,6,2,A,B,1,0,No Hint,Unknown,,bl,bl,1.066667,43.36667,4006,4,1,FALSE,0,6,3,2,4006.01,,40,3,2,1,TEST ,,,4.8678987,33,36,28,9,17,0.4,0,"Comp Recursion - Re-did practice because she wasn't remembering the order from training. I brought the cards over to help her with the first two, and she picked it up from there."k0481,2015.04.06,7,2,B,C,1,0,No Hint,Unknown,,bl,bl,1.8,45.16667,4006,4,1,FALSE,0,6,2,0,4006.02,,40,3,2,1,TEST ,,,4.8678987,33,36,28,9,17,0.4,0,"Comp Recursion - Re-did practice because she wasn't remembering the order from training. I brought the cards over to help her with the first two, and she picked it up from there."k0481,2015.04.06,8,2,D,D,1,0,No Hint,Unknown,1,0,bl,0.7666667,45.93333,4006,4,1,FALSE,0,6,4,4,4006.04,,40,3,2,1,TEST ,,,4.8678987,33,36,28,9,17,0.4,0,"Comp Recursion - Re-did practice because she wasn't remembering the order from training. I brought the cards over to help her with the first two, and she picked it up from there."k0481,2015.04.06,9,3,C,A,1,0,No Hint,Unknown,,bl,bl,2.683333,53.36667,4006,4,1,FALSE,0,6,0,2,4006.03,,40,3,2,1,TEST ,CABD,Center Embedded,4.8678987,33,36,28,9,17,0.4,0,"Comp Recursion - Re-did practice because she wasn't remembering the order from training. I brought the cards over to help her with the first two, and she picked it up from there."k0481,2015.04.06,10,3,A,B,1,0,No Hint,Unknown,,bl,bl,1.016667,54.38333,4006,4,1,FALSE,0,6,2,4,4006.01,,40,3,2,1,TEST ,,,4.8678987,33,36,28,9,17,0.4,0,"Comp Recursion - Re-did practice because she wasn't remembering the order from training. I brought the cards over to help her with the first two, and she picked it up from there."k0481,2015.04.06,11,3,B,C,1,0,No Hint,Unknown,,bl,bl,2.516667,56.9,4006,4,1,FALSE,0,6,4,0,4006.02,,40,3,2,1,TEST ,,,4.8678987,33,36,28,9,17,0.4,0,"Comp Recursion - Re-did practice because she wasn't remembering the order from training. I brought the cards over to help her with the first two, and she picked it up from there."k0481,2015.04.06,12,3,D,D,1,0,No Hint,Unknown,1,0,bl,0.3833333,57.28333,4006,4,1,FALSE,0,6,1,1,4006.04,,40,3,2,1,TEST ,,,4.8678987,33,36,28,9,17,0.4,0,"Comp Recursion - Re-did practice because she wasn't remembering the order from training. I brought the cards over to help her with the first two, and she picked it up from there."k0481,2015.04.06,13,4,C,A,1,0,No Hint,Unknown,,bl,bl,1.733333,64.5,4006,4,1,FALSE,0,6,0,1,4006.03,,40,3,2,1,TEST ,CABD,Center Embedded,4.8678987,33,36,28,9,17,0.4,0,"Comp Recursion - Re-did practice because she wasn't remembering the order from training. I brought the cards over to help her with the first two, and she picked it up from there."k0481,2015.04.06,14,4,A,B,1,0,No Hint,Unknown,,bl,bl,0.9833333,65.48333,4006,4,1,FALSE,0,6,1,2,4006.01,,40,3,2,1,TEST ,,,4.8678987,33,36,28,9,17,0.4,0,"Comp Recursion - Re-did practice because she wasn't remembering the order from training. I brought the cards over to help her with the first two, and she picked it up from there."k0481,2015.04.06,15,4,B,C,1,0,No Hint,Unknown,,bl,bl,1.25,66.73333,4006,4,1,FALSE,0,6,2,0,4006.02,,40,3,2,1,TEST ,,,4.8678987,33,36,28,9,17,0.4,0,"Comp Recursion - Re-did practice because she wasn't remembering the order from training. I brought the cards over to help her with the first two, and she picked it up from there."k0481,2015.04.06,16,4,D,D,1,0,No Hint,Unknown,1,0,bl,0.6,67.33333,4006,4,1,FALSE,0,6,3,3,4006.04,,40,3,2,1,TEST ,,,4.8678987,33,36,28,9,17,0.4,0,"Comp Recursion - Re-did practice because she wasn't remembering the order from training. I brought the cards over to help her with the first two, and she picked it up from there."k0481,2015.04.06,17,5,C,A,1,0,No Hint,Unknown,,bl,bl,2.2,80.28333,4006,4,1,FALSE,0,6,3,2,4006.03,,40,3,2,1,TEST ,CABD,Center Embedded,4.8678987,33,36,28,9,17,0.4,0,"Comp Recursion - Re-did practice because she wasn't remembering the order from training. I brought the cards over to help her with the first two, and she picked it up from there."k0481,2015.04.06,18,5,A,B,1,0,No Hint,Unknown,,bl,bl,3.1,83.38333,4006,4,1,FALSE,0,6,2,4,4006.01,,40,3,2,1,TEST ,,,4.8678987,33,36,28,9,17,0.4,0,"Comp Recursion - Re-did practice because she wasn't remembering the order from training. I brought the cards over to help her with the first two, and she picked it up from there."k0481,2015.04.06,19,5,B,C,1,0,No Hint,Unknown,,bl,bl,3.15,86.53333,4006,4,1,FALSE,0,6,4,3,4006.02,,40,3,2,1,TEST ,,,4.8678987,33,36,28,9,17,0.4,0,"Comp Recursion - Re-did practice because she wasn't remembering the order from training. I brought the cards over to help her with the first two, and she picked it up from there."k0481,2015.04.06,20,5,D,D,1,0,No Hint,Unknown,1,0,bl,0.6666667,87.2,4006,4,1,FALSE,0,6,1,1,4006.04,,40,3,2,1,TEST ,,,4.8678987,33,36,28,9,17,0.4,0,"Comp Recursion - Re-did practice because she wasn't remembering the order from training. I brought the cards over to help her with the first two, and she picked it up from there."k0481,2015.04.06,21,6,C,A,1,0,No Hint,Unknown,,bl,bl,3.383333,95.9,4006,4,1,FALSE,0,6,4,3,4006.03,,40,3,2,1,TEST ,CABD,Center Embedded,4.8678987,33,36,28,9,17,0.4,0,"Comp Recursion - Re-did practice because she wasn't remembering the order from training. I brought the cards over to help her with the first two, and she picked it up from there."k0481,2015.04.06,22,6,A,B,1,0,No Hint,Unknown,,bl,bl,0.5666667,96.46667,4006,4,1,FALSE,0,6,3,2,4006.01,,40,3,2,1,TEST ,,,4.8678987,33,36,28,9,17,0.4,0,"Comp Recursion - Re-did practice because she wasn't remembering the order from training. I brought the cards over to help her with the first two, and she picked it up from there."k0481,2015.04.06,23,6,B,C,1,0,No Hint,Unknown,,bl,bl,1.183333,97.65,4006,4,1,FALSE,0,6,2,4,4006.02,,40,3,2,1,TEST ,,,4.8678987,33,36,28,9,17,0.4,0,"Comp Recursion - Re-did practice because she wasn't remembering the order from training. I brought the cards over to help her with the first two, and she picked it up from there."k0481,2015.04.06,24,6,D,D,1,0,No Hint,Unknown,1,0,bl,0.55,98.2,4006,4,1,FALSE,0,6,5,5,4006.04,,40,3,2,1,TEST ,,,4.8678987,33,36,28,9,17,0.4,0,"Comp Recursion - Re-did practice because she wasn't remembering the order from training. I brought the cards over to help her with the first two, and she picked it up from there."k0481,2015.04.06,25,7,C,A,1,0,No Hint,Unknown,,bl,bl,2.566667,114.25,4006,4,1,FALSE,0,6,3,4,4006.03,,40,3,2,1,TEST ,CABD,Center Embedded,4.8678987,33,36,28,9,17,0.4,0,"Comp Recursion - Re-did practice because she wasn't remembering the order from training. I brought the cards over to help her with the first two, and she picked it up from there."k0481,2015.04.06,26,7,A,B,1,0,No Hint,Unknown,,bl,bl,0.55,114.8,4006,4,1,FALSE,0,6,4,5,4006.01,,40,3,2,1,TEST ,,,4.8678987,33,36,28,9,17,0.4,0,"Comp Recursion - Re-did practice because she wasn't remembering the order from training. I brought the cards over to help her with the first two, and she picked it up from there."k0481,2015.04.06,27,7,B,C,1,0,No Hint,Unknown,,bl,bl,1.4,116.2,4006,4,1,FALSE,0,6,5,3,4006.02,,40,3,2,1,TEST ,,,4.8678987,33,36,28,9,17,0.4,0,"Comp Recursion - Re-did practice because she wasn't remembering the order from training. I brought the cards over to help her with the first two, and she picked it up from there."k0481,2015.04.06,28,7,D,D,1,0,No Hint,Unknown,1,0,bl,0.4666667,116.6667,4006,4,1,FALSE,0,6,1,1,4006.04,,40,3,2,1,TEST ,,,4.8678987,33,36,28,9,17,0.4,0,"Comp Recursion - Re-did practice because she wasn't remembering the order from training. I brought the cards over to help her with the first two, and she picked it up from there."k0481,2015.04.06,33,9,C,A,1,0,No Hint,Unknown,,bl,bl,1.7,146.8167,4006,4,1,FALSE,0,6,4,3,4006.03,,40,3,2,1,TEST ,CABD,Center Embedded,4.8678987,33,36,28,9,17,0.4,0,"Comp Recursion - Re-did practice because she wasn't remembering the order from training. I brought the cards over to help her with the first two, and she picked it up from there."k0481,2015.04.06,34,9,A,B,1,0,No Hint,Unknown,,bl,bl,1.033333,147.85,4006,4,1,FALSE,0,6,3,1,4006.01,,40,3,2,1,TEST ,,,4.8678987,33,36,28,9,17,0.4,0,"Comp Recursion - Re-did practice because she wasn't remembering the order from training. I brought the cards over to help her with the first two, and she picked it up from there."k0481,2015.04.06,35,9,B,C,1,0,No Hint,Unknown,,bl,bl,1.1,148.95,4006,4,1,FALSE,0,6,1,4,4006.02,,40,3,2,1,TEST ,,,4.8678987,33,36,28,9,17,0.4,0,"Comp Recursion - Re-did practice because she wasn't remembering the order from training. I brought the cards over to help her with the first two, and she picked it up from there."k0481,2015.04.06,36,9,D,D,1,0,No Hint,Unknown,1,0,bl,0.6,149.55,4006,4,1,FALSE,0,6,5,5,4006.04,,40,3,2,1,TEST ,,,4.8678987,33,36,28,9,17,0.4,0,"Comp Recursion - Re-did practice because she wasn't remembering the order from training. I brought the cards over to help her with the first two, and she picked it up from there."k0481,2015.04.06,37,10,C,A,1,0,No Hint,Unknown,,bl,bl,1.85,172.5667,4006,4,1,FALSE,0,6,2,5,4006.03,,40,3,2,1,TEST ,CCAC,Repeated Bracket Error,4.8678987,33,36,28,9,17,0.4,0,"Comp Recursion - Re-did practice because she wasn't remembering the order from training. I brought the cards over to help her with the first two, and she picked it up from there."k0481,2015.04.06,38,10,C,B,1,0,No Hint,Unknown,,bl,bl,5.5,178.0667,4006,4,1,FALSE,0,6,2,4,4006.03,,40,3,2,1,TEST ,,,4.8678987,33,36,28,9,17,0.4,0,"Comp Recursion - Re-did practice because she wasn't remembering the order from training. I brought the cards over to help her with the first two, and she picked it up from there."k0481,2015.04.06,39,10,A,C,1,0,No Hint,Unknown,,bl,bl,4.35,182.4167,4006,4,1,FALSE,0,6,5,2,4006.01,,40,3,2,1,TEST ,,,4.8678987,33,36,28,9,17,0.4,0,"Comp Recursion - Re-did practice because she wasn't remembering the order from training. I brought the cards over to help her with the first two, and she picked it up from there."k0481,2015.04.06,40,10,C,D,1,0,No Hint,Unknown,1,0,bl,1.3,183.7167,4006,4,1,FALSE,0,6,2,3,4006.03,,40,3,2,1,TEST ,,,4.8678987,33,36,28,9,17,0.4,0,"Comp Recursion - Re-did practice because she wasn't remembering the order from training. I brought the cards over to help her with the first two, and she picked it up from there."k0481,2015.04.06,50,14,C,A,1,0,No Hint,Unknown,,bl,bl,3.6,231.3833,4006,4,1,FALSE,0,6,0,4,4006.03,,40,3,2,1,TEST ,CABD,Center Embedded,4.8678987,33,36,28,9,17,0.4,0,"Comp Recursion - Re-did practice because she wasn't remembering the order from training. I brought the cards over to help her with the first two, and she picked it up from there."k0481,2015.04.06,51,14,A,B,1,0,No Hint,Unknown,,bl,bl,1,232.3833,4006,4,1,FALSE,0,6,4,3,4006.01,,40,3,2,1,TEST ,,,4.8678987,33,36,28,9,17,0.4,0,"Comp Recursion - Re-did practice because she wasn't remembering the order from training. I brought the cards over to help her with the first two, and she picked it up from there."k0481,2015.04.06,52,14,B,C,1,0,No Hint,Unknown,,bl,bl,0.8166667,233.2,4006,4,1,FALSE,0,6,3,0,4006.02,,40,3,2,1,TEST ,,,4.8678987,33,36,28,9,17,0.4,0,"Comp Recursion - Re-did practice because she wasn't remembering the order from training. I brought the cards over to help her with the first two, and she picked it up from there."k0481,2015.04.06,53,14,D,D,1,0,No Hint,Unknown,1,0,bl,0.6,233.8,4006,4,1,FALSE,0,6,2,2,4006.04,,40,3,2,1,TEST ,,,4.8678987,33,36,28,9,17,0.4,0,"Comp Recursion - Re-did practice because she wasn't remembering the order from training. I brought the cards over to help her with the first two, and she picked it up from there."k0481,2015.04.06,54,15,A,A,1,0,No Hint,Unknown,,bl,bl,3.316667,250.0333,4006,4,1,FALSE,0,6,2,2,4006.01,,40,3,2,1,TEST ,ACDB,Center Embedded,4.8678987,33,36,28,9,17,0.4,0,"Comp Recursion - Re-did practice because she wasn't remembering the order from training. I brought the cards over to help her with the first two, and she picked it up from there."k0481,2015.04.06,55,15,C,B,1,0,No Hint,Unknown,,bl,bl,4.85,254.8833,4006,4,1,FALSE,0,6,1,0,4006.03,,40,3,2,1,TEST ,,,4.8678987,33,36,28,9,17,0.4,0,"Comp Recursion - Re-did practice because she wasn't remembering the order from training. I brought the cards over to help her with the first two, and she picked it up from there."k0481,2015.04.06,56,15,D,C,1,0,No Hint,Unknown,,bl,bl,1.75,256.6333,4006,4,1,FALSE,0,6,5,1,4006.04,,40,3,2,1,TEST ,,,4.8678987,33,36,28,9,17,0.4,0,"Comp Recursion - Re-did practice because she wasn't remembering the order from training. I brought the cards over to help her with the first two, and she picked it up from there."k0481,2015.04.06,57,15,B,D,1,0,No Hint,Unknown,1,0,bl,0.9833333,257.6167,4006,4,1,FALSE,0,6,0,5,4006.02,,40,3,2,1,TEST ,,,4.8678987,33,36,28,9,17,0.4,0,"Comp Recursion - Re-did practice because she wasn't remembering the order from training. I brought the cards over to help her with the first two, and she picked it up from there."k0481,2015.04.06,66,19,A,A,1,0,No Hint,Unknown,,bl,bl,2.583333,328.2333,4006,4,1,FALSE,0,6,1,1,4006.01,,40,3,2,1,TEST ,ACBD,Crossed,4.8678987,33,36,28,9,17,0.4,0,"Comp Recursion - Re-did practice because she wasn't remembering the order from training. I brought the cards over to help her with the first two, and she picked it up from there."k0481,2015.04.06,67,19,C,B,1,0,No Hint,Unknown,,bl,bl,0.65,328.8833,4006,4,1,FALSE,0,6,2,3,4006.03,,40,3,2,1,TEST ,,,4.8678987,33,36,28,9,17,0.4,0,"Comp Recursion - Re-did practice because she wasn't remembering the order from training. I brought the cards over to help her with the first two, and she picked it up from there."k0481,2015.04.06,68,19,B,C,1,0,No Hint,Unknown,,bl,bl,2.816667,331.7,4006,4,1,FALSE,0,6,3,2,4006.02,,40,3,2,1,TEST ,,,4.8678987,33,36,28,9,17,0.4,0,"Comp Recursion - Re-did practice because she wasn't remembering the order from training. I brought the cards over to help her with the first two, and she picked it up from there."k0481,2015.04.06,69,19,D,D,1,0,No Hint,Unknown,1,0,bl,0.5333333,332.2333,4006,4,1,FALSE,0,6,4,4,4006.04,,40,3,2,1,TEST ,,,4.8678987,33,36,28,9,17,0.4,0,"Comp Recursion - Re-did practice because she wasn't remembering the order from training. I brought the cards over to help her with the first two, and she picked it up from there."k0481,2015.04.06,70,20,C,A,1,0,No Hint,Unknown,,bl,bl,1.716667,338.7333,4006,4,1,FALSE,0,6,2,4,4006.03,,40,3,2,1,TEST ,CADB,Crossed,4.8678987,33,36,28,9,17,0.4,0,"Comp Recursion - Re-did practice because she wasn't remembering the order from training. I brought the cards over to help her with the first two, and she picked it up from there."k0481,2015.04.06,71,20,A,B,1,0,No Hint,Unknown,,bl,bl,2.6,341.3333,4006,4,1,FALSE,0,6,4,1,4006.01,,40,3,2,1,TEST ,,,4.8678987,33,36,28,9,17,0.4,0,"Comp Recursion - Re-did practice because she wasn't remembering the order from training. I brought the cards over to help her with the first two, and she picked it up from there."k0481,2015.04.06,72,20,D,C,1,0,No Hint,Unknown,,bl,bl,1.566667,342.9,4006,4,1,FALSE,0,6,0,2,4006.04,,40,3,2,1,TEST ,,,4.8678987,33,36,28,9,17,0.4,0,"Comp Recursion - Re-did practice because she wasn't remembering the order from training. I brought the cards over to help her with the first two, and she picked it up from there."k0481,2015.04.06,73,20,B,D,1,0,No Hint,Unknown,1,0,bl,0.6166667,343.5167,4006,4,1,FALSE,0,6,1,0,4006.02,,40,3,2,1,TEST ,,,4.8678987,33,36,28,9,17,0.4,0,"Comp Recursion - Re-did practice because she wasn't remembering the order from training. I brought the cards over to help her with the first two, and she picked it up from there."k0481,2015.04.06,78,22,A,A,1,0,No Hint,Unknown,,bl,bl,5.45,368.3167,4006,4,1,FALSE,0,6,2,2,4006.01,,40,3,2,1,TEST ,ACDB,Center Embedded,4.8678987,33,36,28,9,17,0.4,0,"Comp Recursion - Re-did practice because she wasn't remembering the order from training. I brought the cards over to help her with the first two, and she picked it up from there."k0481,2015.04.06,79,22,C,B,1,0,No Hint,Unknown,,bl,bl,1.2,369.5167,4006,4,1,FALSE,0,6,5,3,4006.03,,40,3,2,1,TEST ,,,4.8678987,33,36,28,9,17,0.4,0,"Comp Recursion - Re-did practice because she wasn't remembering the order from training. I brought the cards over to help her with the first two, and she picked it up from there."k0481,2015.04.06,80,22,D,C,1,0,No Hint,Unknown,,bl,bl,1.1,370.6167,4006,4,1,FALSE,0,6,0,5,4006.04,,40,3,2,1,TEST ,,,4.8678987,33,36,28,9,17,0.4,0,"Comp Recursion - Re-did practice because she wasn't remembering the order from training. I brought the cards over to help her with the first two, and she picked it up from there."k0481,2015.04.06,81,22,B,D,1,0,No Hint,Unknown,1,0,bl,0.6166667,371.2333,4006,4,1,FALSE,0,6,3,0,4006.02,,40,3,2,1,TEST ,,,4.8678987,33,36,28,9,17,0.4,0,"Comp Recursion - Re-did practice because she wasn't remembering the order from training. I brought the cards over to help her with the first two, and she picked it up from there."k0481,2015.04.06,96,29,C,A,1,0,No Hint,Unknown,,bl,bl,2.616667,540.6167,4006,4,1,FALSE,0,6,3,2,4006.03,,40,3,2,1,TEST ,CABD,Center Embedded,4.8678987,33,36,28,9,17,0.4,0,"Comp Recursion - Re-did practice because she wasn't remembering the order from training. I brought the cards over to help her with the first two, and she picked it up from there."k0481,2015.04.06,97,29,A,B,1,0,No Hint,Unknown,,bl,bl,0.7833333,541.4,4006,4,1,FALSE,0,6,2,4,4006.01,,40,3,2,1,TEST ,,,4.8678987,33,36,28,9,17,0.4,0,"Comp Recursion - Re-did practice because she wasn't remembering the order from training. I brought the cards over to help her with the first two, and she picked it up from there."k0481,2015.04.06,98,29,B,C,1,0,No Hint,Unknown,,bl,bl,1.266667,542.6667,4006,4,1,FALSE,0,6,4,3,4006.02,,40,3,2,1,TEST ,,,4.8678987,33,36,28,9,17,0.4,0,"Comp Recursion - Re-did practice because she wasn't remembering the order from training. I brought the cards over to help her with the first two, and she picked it up from there."k0481,2015.04.06,99,29,D,D,1,0,No Hint,Unknown,1,0,bl,0.4666667,543.15,4006,4,1,FALSE,0,6,5,5,4006.04,,40,3,2,1,TEST ,,,4.8678987,33,36,28,9,17,0.4,0,"Comp Recursion - Re-did practice because she wasn't remembering the order from training. I brought the cards over to help her with the first two, and she picked it up from there."k0481,2015.04.06,105,32,C,A,1,0,No Hint,Unknown,,bl,bl,1.4,570.6167,4006,4,1,FALSE,0,6,2,1,4006.03,,40,3,2,1,TEST ,CADB,Crossed,4.8678987,33,36,28,9,17,0.4,0,"Comp Recursion - Re-did practice because she wasn't remembering the order from training. I brought the cards over to help her with the first two, and she picked it up from there."k0481,2015.04.06,106,32,A,B,1,0,No Hint,Unknown,,bl,bl,2.116667,572.7333,4006,4,1,FALSE,0,6,1,5,4006.01,,40,3,2,1,TEST ,,,4.8678987,33,36,28,9,17,0.4,0,"Comp Recursion - Re-did practice because she wasn't remembering the order from training. I brought the cards over to help her with the first two, and she picked it up from there."k0481,2015.04.06,107,32,D,C,1,0,No Hint,Unknown,,bl,bl,2.233333,574.9667,4006,4,1,FALSE,0,6,3,2,4006.04,,40,3,2,1,TEST ,,,4.8678987,33,36,28,9,17,0.4,0,"Comp Recursion - Re-did practice because she wasn't remembering the order from training. I brought the cards over to help her with the first two, and she picked it up from there."k0481,2015.04.06,108,32,B,D,1,0,No Hint,Unknown,1,0,bl,0.5833333,575.55,4006,4,1,FALSE,0,6,5,3,4006.02,,40,3,2,1,TEST ,,,4.8678987,33,36,28,9,17,0.4,0,"Comp Recursion - Re-did practice because she wasn't remembering the order from training. I brought the cards over to help her with the first two, and she picked it up from there."k0481,2015.04.06,109,33,C,A,1,0,No Hint,Unknown,,bl,bl,1.483333,592.0833,4006,4,1,FALSE,0,6,2,4,4006.03,,40,3,2,1,TEST ,CADB,Crossed,4.8678987,33,36,28,9,17,0.4,0,"Comp Recursion - Re-did practice because she wasn't remembering the order from training. I brought the cards over to help her with the first two, and she picked it up from there."k0481,2015.04.06,110,33,A,B,1,0,No Hint,Unknown,,bl,bl,2.433333,594.5167,4006,4,1,FALSE,0,6,4,5,4006.01,,40,3,2,1,TEST ,,,4.8678987,33,36,28,9,17,0.4,0,"Comp Recursion - Re-did practice because she wasn't remembering the order from training. I brought the cards over to help her with the first two, and she picked it up from there."k0481,2015.04.06,111,33,D,C,1,0,No Hint,Unknown,,bl,bl,1.583333,596.1,4006,4,1,FALSE,0,6,0,2,4006.04,,40,3,2,1,TEST ,,,4.8678987,33,36,28,9,17,0.4,0,"Comp Recursion - Re-did practice because she wasn't remembering the order from training. I brought the cards over to help her with the first two, and she picked it up from there."k0481,2015.04.06,112,33,B,D,1,0,No Hint,Unknown,1,0,bl,0.5833333,596.6833,4006,4,1,FALSE,0,6,5,0,4006.02,,40,3,2,1,TEST ,,,4.8678987,33,36,28,9,17,0.4,0,"Comp Recursion - Re-did practice because she wasn't remembering the order from training. I brought the cards over to help her with the first two, and she picked it up from there."k0481,2015.04.06,114,35,C,A,1,0,No Hint,Unknown,,bl,bl,2.483333,623.2,4006,4,1,FALSE,0,6,5,3,4006.03,,40,3,2,1,TEST ,CADB,Crossed,4.8678987,33,36,28,9,17,0.4,0,"Comp Recursion - Re-did practice because she wasn't remembering the order from training. I brought the cards over to help her with the first two, and she picked it up from there."k0481,2015.04.06,115,35,A,B,1,0,No Hint,Unknown,,bl,bl,1.216667,624.4167,4006,4,1,FALSE,0,6,3,4,4006.01,,40,3,2,1,TEST ,,,4.8678987,33,36,28,9,17,0.4,0,"Comp Recursion - Re-did practice because she wasn't remembering the order from training. I brought the cards over to help her with the first two, and she picked it up from there."k0481,2015.04.06,116,35,D,C,1,0,No Hint,Unknown,,bl,bl,1.8,626.2167,4006,4,1,FALSE,0,6,1,5,4006.04,,40,3,2,1,TEST ,,,4.8678987,33,36,28,9,17,0.4,0,"Comp Recursion - Re-did practice because she wasn't remembering the order from training. I brought the cards over to help her with the first two, and she picked it up from there."k0481,2015.04.06,117,35,B,D,1,0,No Hint,Unknown,1,0,bl,0.6,626.8167,4006,4,1,FALSE,0,6,4,1,4006.02,,40,3,2,1,TEST ,,,4.8678987,33,36,28,9,17,0.4,0,"Comp Recursion - Re-did practice because she wasn't remembering the order from training. I brought the cards over to help her with the first two, and she picked it up from there."k0481,2015.04.06,119,37,C,A,1,0,No Hint,Unknown,,bl,bl,10.48333,691.5667,4006,4,1,FALSE,0,6,4,1,4006.03,,40,3,2,1,TEST ,CADB,Crossed,4.8678987,33,36,28,9,17,0.4,0,"Comp Recursion - Re-did practice because she wasn't remembering the order from training. I brought the cards over to help her with the first two, and she picked it up from there."k0481,2015.04.06,120,37,A,B,1,0,No Hint,Unknown,,bl,bl,0.4833333,692.05,4006,4,1,FALSE,0,6,1,0,4006.01,,40,3,2,1,TEST ,,,4.8678987,33,36,28,9,17,0.4,0,"Comp Recursion - Re-did practice because she wasn't remembering the order from training. I brought the cards over to help her with the first two, and she picked it up from there."k0481,2015.04.06,121,37,D,C,1,0,No Hint,Unknown,,bl,bl,2.5,694.55,4006,4,1,FALSE,0,6,2,4,4006.04,,40,3,2,1,TEST ,,,4.8678987,33,36,28,9,17,0.4,0,"Comp Recursion - Re-did practice because she wasn't remembering the order from training. I brought the cards over to help her with the first two, and she picked it up from there."k0481,2015.04.06,122,37,B,D,1,0,No Hint,Unknown,1,0,bl,0.5666667,695.1167,4006,4,1,FALSE,0,6,0,2,4006.02,,40,3,2,1,TEST ,,,4.8678987,33,36,28,9,17,0.4,0,"Comp Recursion - Re-did practice because she wasn't remembering the order from training. I brought the cards over to help her with the first two, and she picked it up from there."k0481,2015.04.06,123,38,C,A,1,0,No Hint,Unknown,,bl,bl,2.083333,709.3833,4006,4,1,FALSE,0,6,0,3,4006.03,,40,3,2,1,TEST ,CADB,Crossed,4.8678987,33,36,28,9,17,0.4,0,"Comp Recursion - Re-did practice because she wasn't remembering the order from training. I brought the cards over to help her with the first two, and she picked it up from there."k0481,2015.04.06,124,38,A,B,1,0,No Hint,Unknown,,bl,bl,2.666667,712.05,4006,4,1,FALSE,0,6,3,1,4006.01,,40,3,2,1,TEST ,,,4.8678987,33,36,28,9,17,0.4,0,"Comp Recursion - Re-did practice because she wasn't remembering the order from training. I brought the cards over to help her with the first two, and she picked it up from there."k0481,2015.04.06,125,38,D,C,1,0,No Hint,Unknown,,bl,bl,1.866667,713.9167,4006,4,1,FALSE,0,6,4,0,4006.04,,40,3,2,1,TEST ,,,4.8678987,33,36,28,9,17,0.4,0,"Comp Recursion - Re-did practice because she wasn't remembering the order from training. I brought the cards over to help her with the first two, and she picked it up from there."k0481,2015.04.06,126,38,B,D,1,0,No Hint,Unknown,1,0,bl,0.4833333,714.4,4006,4,1,FALSE,0,6,1,4,4006.02,,40,3,2,1,TEST ,,,4.8678987,33,36,28,9,17,0.4,0,"Comp Recursion - Re-did practice because she wasn't remembering the order from training. I brought the cards over to help her with the first two, and she picked it up from there."k0494,2015.04.14,5,2,A,A,1,0,No Hint,Unknown,,bl,bl,19.38333,38.95,4006,4,1,FALSE,0,6,3,3,4006.01,,40,3,2,1,TEST ,ACDB,Center Embedded,4.761122519,38,22,13,17,24,0.55,0,0k0494,2015.04.14,6,2,C,B,1,0,No Hint,Unknown,,bl,bl,0.8833333,39.83333,4006,4,1,FALSE,0,6,1,0,4006.03,,40,3,2,1,TEST ,,,4.761122519,38,22,13,17,24,0.55,0,0k0494,2015.04.14,7,2,D,C,1,0,No Hint,Unknown,,bl,bl,7.366667,47.2,4006,4,1,FALSE,0,6,5,1,4006.04,,40,3,2,1,TEST ,,,4.761122519,38,22,13,17,24,0.55,0,0k0494,2015.04.14,8,2,B,D,1,0,No Hint,Unknown,1,0,bl,1.033333,48.23333,4006,4,1,FALSE,0,6,0,5,4006.02,,40,3,2,1,TEST ,,,4.761122519,38,22,13,17,24,0.55,0,0k0494,2015.04.14,10,4,A,A,1,0,No Hint,Unknown,,bl,bl,3.483333,71.45,4006,4,1,FALSE,0,6,0,0,4006.01,,40,3,2,1,TEST ,ACDB,Center Embedded,4.761122519,38,22,13,17,24,0.55,0,0k0494,2015.04.14,11,4,C,B,1,0,No Hint,Unknown,,bl,bl,5.35,76.8,4006,4,1,FALSE,0,6,2,4,4006.03,,40,3,2,1,TEST ,,,4.761122519,38,22,13,17,24,0.55,0,0k0494,2015.04.14,12,4,D,C,1,0,No Hint,Unknown,,bl,bl,1.866667,78.66667,4006,4,1,FALSE,0,6,1,2,4006.04,,40,3,2,1,TEST ,,,4.761122519,38,22,13,17,24,0.55,0,0k0494,2015.04.14,13,4,B,D,1,0,No Hint,Unknown,1,0,bl,0.4666667,79.13333,4006,4,1,FALSE,0,6,4,1,4006.02,,40,3,2,1,TEST ,,,4.761122519,38,22,13,17,24,0.55,0,0k0494,2015.04.14,18,6,A,A,1,0,No Hint,Unknown,,bl,bl,4.383333,111.45,4006,4,1,FALSE,0,6,3,3,4006.01,,40,3,2,1,TEST ,ACDB,Center Embedded,4.761122519,38,22,13,17,24,0.55,0,0k0494,2015.04.14,19,6,C,B,1,0,No Hint,Unknown,,bl,bl,6.566667,118.0167,4006,4,1,FALSE,0,6,1,5,4006.03,,40,3,2,1,TEST ,,,4.761122519,38,22,13,17,24,0.55,0,0k0494,2015.04.14,20,6,D,C,1,0,No Hint,Unknown,,bl,bl,3.7,121.7167,4006,4,1,FALSE,0,6,2,1,4006.04,,40,3,2,1,TEST ,,,4.761122519,38,22,13,17,24,0.55,0,0k0494,2015.04.14,21,6,B,D,1,0,No Hint,Unknown,1,0,bl,1.533333,123.25,4006,4,1,FALSE,0,6,5,2,4006.02,,40,3,2,1,TEST ,,,4.761122519,38,22,13,17,24,0.55,0,0k0494,2015.04.14,35,11,C,A,1,0,No Hint,Unknown,,bl,bl,7.883333,211.7167,4006,4,1,FALSE,0,6,3,0,4006.03,,40,3,2,1,TEST ,CABD,Center Embedded,4.761122519,38,22,13,17,24,0.55,0,0k0494,2015.04.14,36,11,A,B,1,0,No Hint,Unknown,,bl,bl,6.816667,218.5333,4006,4,1,FALSE,0,6,0,1,4006.01,,40,3,2,1,TEST ,,,4.761122519,38,22,13,17,24,0.55,0,0k0494,2015.04.14,37,11,B,C,1,0,No Hint,Unknown,,bl,bl,1.533333,220.0667,4006,4,1,FALSE,0,6,1,3,4006.02,,40,3,2,1,TEST ,,,4.761122519,38,22,13,17,24,0.55,0,0k0494,2015.04.14,38,11,D,D,1,0,No Hint,Unknown,1,0,bl,0.9333333,221,4006,4,1,FALSE,0,6,2,2,4006.04,,40,3,2,1,TEST ,,,4.761122519,38,22,13,17,24,0.55,0,0k0494,2015.04.14,42,13,C,A,1,0,No Hint,Unknown,,bl,bl,4.566667,264.0333,4006,4,1,FALSE,0,6,3,4,4006.03,,40,3,2,1,TEST ,CABD,Center Embedded,4.761122519,38,22,13,17,24,0.55,0,0k0494,2015.04.14,43,13,A,B,1,0,No Hint,Unknown,,bl,bl,1.166667,265.2,4006,4,1,FALSE,0,6,4,1,4006.01,,40,3,2,1,TEST ,,,4.761122519,38,22,13,17,24,0.55,0,0k0494,2015.04.14,44,13,B,C,1,0,No Hint,Unknown,,bl,bl,1.183333,266.3833,4006,4,1,FALSE,0,6,1,3,4006.02,,40,3,2,1,TEST ,,,4.761122519,38,22,13,17,24,0.55,0,0k0494,2015.04.14,45,13,D,D,1,0,No Hint,Unknown,1,0,bl,0.7666667,267.15,4006,4,1,FALSE,0,6,2,2,4006.04,,40,3,2,1,TEST ,,,4.761122519,38,22,13,17,24,0.55,0,0k0494,2015.04.14,47,15,C,A,1,0,No Hint,Unknown,,bl,bl,5.316667,294.0333,4006,4,1,FALSE,0,6,3,5,4006.03,,40,3,2,1,TEST ,CABD,Center Embedded,4.761122519,38,22,13,17,24,0.55,0,0k0494,2015.04.14,48,15,A,B,1,0,No Hint,Unknown,,bl,bl,2.783333,296.8167,4006,4,1,FALSE,0,6,5,2,4006.01,,40,3,2,1,TEST ,,,4.761122519,38,22,13,17,24,0.55,0,0k0494,2015.04.14,49,15,B,C,1,0,No Hint,Unknown,,bl,bl,2.916667,299.7333,4006,4,1,FALSE,0,6,2,3,4006.02,,40,3,2,1,TEST ,,,4.761122519,38,22,13,17,24,0.55,0,0k0494,2015.04.14,50,15,D,D,1,0,No Hint,Unknown,1,0,bl,0.5833333,300.3167,4006,4,1,FALSE,0,6,4,4,4006.04,,40,3,2,1,TEST ,,,4.761122519,38,22,13,17,24,0.55,0,0k0494,2015.04.14,51,16,C,A,1,0,No Hint,Unknown,,bl,bl,4.616667,310.3,4006,4,1,FALSE,0,6,0,2,4006.03,,40,3,2,1,TEST ,CABD,Center Embedded,4.761122519,38,22,13,17,24,0.55,0,0k0494,2015.04.14,52,16,A,B,1,0,No Hint,Unknown,,bl,bl,4.5,314.8,4006,4,1,FALSE,0,6,2,1,4006.01,,40,3,2,1,TEST ,,,4.761122519,38,22,13,17,24,0.55,0,0k0494,2015.04.14,53,16,B,C,1,0,No Hint,Unknown,,bl,bl,3.116667,317.9167,4006,4,1,FALSE,0,6,1,0,4006.02,,40,3,2,1,TEST ,,,4.761122519,38,22,13,17,24,0.55,0,0k0494,2015.04.14,54,16,D,D,1,0,No Hint,Unknown,1,0,bl,1,318.9167,4006,4,1,FALSE,0,6,3,3,4006.04,,40,3,2,1,TEST ,,,4.761122519,38,22,13,17,24,0.55,0,0k0494,2015.04.14,55,17,C,A,1,0,No Hint,Unknown,,bl,bl,4.35,336.3,4006,4,1,FALSE,0,6,2,1,4006.03,,40,3,2,1,TEST ,CABD,Center Embedded,4.761122519,38,22,13,17,24,0.55,0,0k0494,2015.04.14,56,17,A,B,1,0,No Hint,Unknown,,bl,bl,1.533333,337.8333,4006,4,1,FALSE,0,6,1,3,4006.01,,40,3,2,1,TEST ,,,4.761122519,38,22,13,17,24,0.55,0,0k0494,2015.04.14,57,17,B,C,1,0,No Hint,Unknown,,bl,bl,1.95,339.7833,4006,4,1,FALSE,0,6,3,2,4006.02,,40,3,2,1,TEST ,,,4.761122519,38,22,13,17,24,0.55,0,0k0494,2015.04.14,58,17,D,D,1,0,No Hint,Unknown,1,0,bl,0.3333333,340.1167,4006,4,1,FALSE,0,6,4,4,4006.04,,40,3,2,1,TEST ,,,4.761122519,38,22,13,17,24,0.55,0,0k0494,2015.04.14,59,18,A,A,1,0,No Hint,Unknown,,bl,bl,4.9,349.3667,4006,4,1,FALSE,0,6,5,5,4006.01,,40,3,2,1,TEST ,ACDB,Center Embedded,4.761122519,38,22,13,17,24,0.55,0,0k0494,2015.04.14,60,18,C,B,1,0,No Hint,Unknown,,bl,bl,0.6166667,349.9833,4006,4,1,FALSE,0,6,2,4,4006.03,,40,3,2,1,TEST ,,,4.761122519,38,22,13,17,24,0.55,0,0k0494,2015.04.14,61,18,D,C,1,0,No Hint,Unknown,,bl,bl,7.933333,357.9167,4006,4,1,FALSE,0,6,0,2,4006.04,,40,3,2,1,TEST ,,,4.761122519,38,22,13,17,24,0.55,0,0k0494,2015.04.14,62,18,B,D,1,0,No Hint,Unknown,1,0,bl,0.7333333,358.65,4006,4,1,FALSE,0,6,4,0,4006.02,,40,3,2,1,TEST ,,,4.761122519,38,22,13,17,24,0.55,0,0k0494,2015.04.14,63,19,A,A,1,0,No Hint,Unknown,,bl,bl,3.333333,368.1333,4006,4,1,FALSE,0,6,0,0,4006.01,,40,3,2,1,TEST ,ACDB,Center Embedded,4.761122519,38,22,13,17,24,0.55,0,0k0494,2015.04.14,64,19,C,B,1,0,No Hint,Unknown,,bl,bl,1.566667,369.7,4006,4,1,FALSE,0,6,5,4,4006.03,,40,3,2,1,TEST ,,,4.761122519,38,22,13,17,24,0.55,0,0k0494,2015.04.14,65,19,D,C,1,0,No Hint,Unknown,,bl,bl,8.683333,378.3833,4006,4,1,FALSE,0,6,1,5,4006.04,,40,3,2,1,TEST ,,,4.761122519,38,22,13,17,24,0.55,0,0k0494,2015.04.14,66,19,B,D,1,0,No Hint,Unknown,1,0,bl,0.3333333,378.7167,4006,4,1,FALSE,0,6,4,1,4006.02,,40,3,2,1,TEST ,,,4.761122519,38,22,13,17,24,0.55,0,0k0494,2015.04.14,68,21,C,A,1,0,No Hint,Unknown,,bl,bl,3,398.9167,4006,4,1,FALSE,0,6,1,2,4006.03,,40,3,2,1,TEST ,CADB,Crossed,4.761122519,38,22,13,17,24,0.55,0,0k0494,2015.04.14,69,21,A,B,1,0,No Hint,Unknown,,bl,bl,1.666667,400.5833,4006,4,1,FALSE,0,6,2,0,4006.01,,40,3,2,1,TEST ,,,4.761122519,38,22,13,17,24,0.55,0,0k0494,2015.04.14,70,21,D,C,1,0,No Hint,Unknown,,bl,bl,1.116667,401.7,4006,4,1,FALSE,0,6,3,1,4006.04,,40,3,2,1,TEST ,,,4.761122519,38,22,13,17,24,0.55,0,0k0494,2015.04.14,71,21,B,D,1,0,No Hint,Unknown,1,0,bl,1.333333,403.0333,4006,4,1,FALSE,0,6,0,3,4006.02,,40,3,2,1,TEST ,,,4.761122519,38,22,13,17,24,0.55,0,0k0494,2015.04.14,73,23,C,A,1,0,No Hint,Unknown,,bl,bl,4.35,428.9833,4006,4,1,FALSE,0,6,2,0,4006.03,,40,3,2,1,TEST ,CABD,Center Embedded,4.761122519,38,22,13,17,24,0.55,0,0k0494,2015.04.14,74,23,A,B,1,0,No Hint,Unknown,,bl,bl,2.333333,431.3167,4006,4,1,FALSE,0,6,0,4,4006.01,,40,3,2,1,TEST ,,,4.761122519,38,22,13,17,24,0.55,0,0k0494,2015.04.14,75,23,B,C,1,0,No Hint,Unknown,,bl,bl,1.95,433.2667,4006,4,1,FALSE,0,6,4,2,4006.02,,40,3,2,1,TEST ,,,4.761122519,38,22,13,17,24,0.55,0,0k0494,2015.04.14,76,23,D,D,1,0,No Hint,Unknown,1,0,bl,0.3,433.5667,4006,4,1,FALSE,0,6,5,5,4006.04,,40,3,2,1,TEST ,,,4.761122519,38,22,13,17,24,0.55,0,0k0494,2015.04.14,77,24,C,A,1,0,No Hint,Unknown,,bl,bl,2.633333,442.7667,4006,4,1,FALSE,0,6,2,3,4006.03,,40,3,2,1,TEST ,CABD,Center Embedded,4.761122519,38,22,13,17,24,0.55,0,0k0494,2015.04.14,78,24,A,B,1,0,No Hint,Unknown,,bl,bl,3.166667,445.9333,4006,4,1,FALSE,0,6,3,4,4006.01,,40,3,2,1,TEST ,,,4.761122519,38,22,13,17,24,0.55,0,0k0494,2015.04.14,79,24,B,C,1,0,No Hint,Unknown,,bl,bl,1.583333,447.5167,4006,4,1,FALSE,0,6,4,2,4006.02,,40,3,2,1,TEST ,,,4.761122519,38,22,13,17,24,0.55,0,0k0494,2015.04.14,80,24,D,D,1,0,No Hint,Unknown,1,0,bl,0.2666667,447.7833,4006,4,1,FALSE,0,6,1,1,4006.04,,40,3,2,1,TEST ,,,4.761122519,38,22,13,17,24,0.55,0,0k0494,2015.04.14,82,26,C,A,1,0,No Hint,Unknown,,bl,bl,8.35,471.05,4006,4,1,FALSE,0,6,0,5,4006.03,,40,3,2,1,TEST ,CABD,Center Embedded,4.761122519,38,22,13,17,24,0.55,0,0k0494,2015.04.14,83,26,A,B,1,0,No Hint,Unknown,,bl,bl,1.533333,472.5833,4006,4,1,FALSE,0,6,5,2,4006.01,,40,3,2,1,TEST ,,,4.761122519,38,22,13,17,24,0.55,0,0k0494,2015.04.14,84,26,B,C,1,0,No Hint,Unknown,,bl,bl,2,474.5833,4006,4,1,FALSE,0,6,2,0,4006.02,,40,3,2,1,TEST ,,,4.761122519,38,22,13,17,24,0.55,0,0k0494,2015.04.14,85,26,D,D,1,0,No Hint,Unknown,1,0,bl,0.2333333,474.8167,4006,4,1,FALSE,0,6,4,4,4006.04,,40,3,2,1,TEST ,,,4.761122519,38,22,13,17,24,0.55,0,0k0494,2015.04.14,86,27,C,A,1,0,No Hint,Unknown,,bl,bl,15.68333,496.8333,4006,4,1,FALSE,0,6,3,1,4006.03,,40,3,2,1,TEST ,CABD,Center Embedded,4.761122519,38,22,13,17,24,0.55,0,0k0494,2015.04.14,87,27,A,B,1,0,No Hint,Unknown,,bl,bl,0.75,497.5833,4006,4,1,FALSE,0,6,1,2,4006.01,,40,3,2,1,TEST ,,,4.761122519,38,22,13,17,24,0.55,0,0k0494,2015.04.14,88,27,B,C,1,0,No Hint,Unknown,,bl,bl,1.966667,499.55,4006,4,1,FALSE,0,6,2,3,4006.02,,40,3,2,1,TEST ,,,4.761122519,38,22,13,17,24,0.55,0,0k0494,2015.04.14,89,27,D,D,1,0,No Hint,Unknown,1,0,bl,0.4,499.95,4006,4,1,FALSE,0,6,0,0,4006.04,,40,3,2,1,TEST ,,,4.761122519,38,22,13,17,24,0.55,0,0k0494,2015.04.14,110,34,C,A,1,0,No Hint,Unknown,,bl,bl,9.683333,602.8833,4006,4,1,FALSE,0,6,5,3,4006.03,,40,3,2,1,TEST ,CABD,Center Embedded,4.761122519,38,22,13,17,24,0.55,0,0k0494,2015.04.14,111,34,A,B,1,0,No Hint,Unknown,,bl,bl,1.883333,604.7667,4006,4,1,FALSE,0,6,3,4,4006.01,,40,3,2,1,TEST ,,,4.761122519,38,22,13,17,24,0.55,0,0k0494,2015.04.14,112,34,B,C,1,0,No Hint,Unknown,,bl,bl,1.45,606.2167,4006,4,1,FALSE,0,6,4,5,4006.02,,40,3,2,1,TEST ,,,4.761122519,38,22,13,17,24,0.55,0,0k0494,2015.04.14,113,34,D,D,1,0,No Hint,Unknown,1,0,bl,0.2833333,606.5,4006,4,1,FALSE,0,6,1,1,4006.04,,40,3,2,1,TEST ,,,4.761122519,38,22,13,17,24,0.55,0,0k0494,2015.04.14,122,37,C,A,1,0,No Hint,Unknown,,bl,bl,4.883333,662.6167,4006,4,1,FALSE,0,6,5,0,4006.03,,40,3,2,1,TEST ,CABD,Center Embedded,4.761122519,38,22,13,17,24,0.55,0,0k0494,2015.04.14,123,37,A,B,1,0,No Hint,Unknown,,bl,bl,3.2,665.8167,4006,4,1,FALSE,0,6,0,4,4006.01,,40,3,2,1,TEST ,,,4.761122519,38,22,13,17,24,0.55,0,0k0494,2015.04.14,124,37,B,C,1,0,No Hint,Unknown,,bl,bl,4.116667,669.9333,4006,4,1,FALSE,0,6,4,5,4006.02,,40,3,2,1,TEST ,,,4.761122519,38,22,13,17,24,0.55,0,0k0494,2015.04.14,125,37,D,D,1,0,No Hint,Unknown,1,0,bl,0.35,670.2833,4006,4,1,FALSE,0,6,3,3,4006.04,,40,3,2,1,TEST ,,,4.761122519,38,22,13,17,24,0.55,0,0k0494,2015.04.14,126,38,C,A,1,0,No Hint,Unknown,,bl,bl,4.683333,681.55,4006,4,1,FALSE,0,6,1,0,4006.03,,40,3,2,1,TEST ,CABD,Center Embedded,4.761122519,38,22,13,17,24,0.55,0,0k0494,2015.04.14,127,38,A,B,1,0,No Hint,Unknown,,bl,bl,0.8666667,682.4167,4006,4,1,FALSE,0,6,0,4,4006.01,,40,3,2,1,TEST ,,,4.761122519,38,22,13,17,24,0.55,0,0k0494,2015.04.14,128,38,B,C,1,0,No Hint,Unknown,,bl,bl,1.866667,684.2833,4006,4,1,FALSE,0,6,4,1,4006.02,,40,3,2,1,TEST ,,,4.761122519,38,22,13,17,24,0.55,0,0k0494,2015.04.14,129,38,D,D,1,0,No Hint,Unknown,1,0,bl,0.35,684.6333,4006,4,1,FALSE,0,6,5,5,4006.04,,40,3,2,1,TEST ,,,4.761122519,38,22,13,17,24,0.55,0,0k0494,2015.04.14,130,39,C,A,1,0,No Hint,Unknown,,bl,bl,9,697.5667,4006,4,1,FALSE,0,6,5,4,4006.03,,40,3,2,1,TEST ,CABD,Center Embedded,4.761122519,38,22,13,17,24,0.55,0,0k0494,2015.04.14,131,39,A,B,1,0,No Hint,Unknown,,bl,bl,2.25,699.8167,4006,4,1,FALSE,0,6,4,0,4006.01,,40,3,2,1,TEST ,,,4.761122519,38,22,13,17,24,0.55,0,0k0494,2015.04.14,132,39,B,C,1,0,No Hint,Unknown,,bl,bl,1.55,701.3667,4006,4,1,FALSE,0,6,0,5,4006.02,,40,3,2,1,TEST ,,,4.761122519,38,22,13,17,24,0.55,0,0k0494,2015.04.14,133,39,D,D,1,0,No Hint,Unknown,1,0,bl,0.3666667,701.7333,4006,4,1,FALSE,0,6,1,1,4006.04,,40,3,2,1,TEST ,,,4.761122519,38,22,13,17,24,0.55,0,0k0494,2015.04.14,134,40,C,A,1,0,No Hint,Unknown,,bl,bl,2.4,708.2333,4006,4,1,FALSE,0,6,2,0,4006.03,,40,3,2,1,TEST ,CABD,Center Embedded,4.761122519,38,22,13,17,24,0.55,0,0k0494,2015.04.14,135,40,A,B,1,0,No Hint,Unknown,,bl,bl,2.466667,710.7,4006,4,1,FALSE,0,6,0,4,4006.01,,40,3,2,1,TEST ,,,4.761122519,38,22,13,17,24,0.55,0,0k0494,2015.04.14,136,40,B,C,1,0,No Hint,Unknown,,bl,bl,2.266667,712.9667,4006,4,1,FALSE,0,6,4,2,4006.02,,40,3,2,1,TEST ,,,4.761122519,38,22,13,17,24,0.55,0,0k0494,2015.04.14,137,40,D,D,1,0,No Hint,Unknown,1,0,bl,0.2666667,713.2333,4006,4,1,FALSE,0,6,1,1,4006.04,,40,3,2,1,TEST ,,,4.761122519,38,22,13,17,24,0.55,0,0k0496,2015.06.23,1,1,C,A,1,0,No Hint,Unknown,,bl,bl,5.766667,9.55,4006,4,1,FALSE,0,6,2,1,4006.03,,40,3,2,1,TEST,CABD,Center Embedded,4.36,23,50,36,19,20,0.7,0,0k0496,2015.06.23,2,1,A,B,1,0,No Hint,Unknown,,bl,bl,1.466667,10.91667,4006,4,1,FALSE,0,6,1,0,4006.01,,40,3,2,1,TEST,,,4.36,23,50,36,19,20,0.7,0,0k0496,2015.06.23,3,1,B,C,1,0,No Hint,Unknown,,bl,bl,2.483333,13.4,4006,4,1,FALSE,0,6,0,2,4006.02,,40,3,2,1,TEST,,,4.36,23,50,36,19,20,0.7,0,0k0496,2015.06.23,4,1,D,D,1,0,No Hint,Unknown,1,0,bl,0.65,14.05,4006,4,1,FALSE,0,6,5,5,4006.04,,40,3,2,1,TEST,,,4.36,23,50,36,19,20,0.7,0,0k0496,2015.06.23,5,2,C,A,1,0,No Hint,Unknown,,bl,bl,2.85,21.3,4006,4,1,FALSE,0,6,2,1,4006.03,,40,3,2,1,TEST,CABD,Center Embedded,4.36,23,50,36,19,20,0.7,0,0k0496,2015.06.23,6,2,A,B,1,0,No Hint,Unknown,,bl,bl,0.7833333,22.08333,4006,4,1,FALSE,0,6,1,0,4006.01,,40,3,2,1,TEST,,,4.36,23,50,36,19,20,0.7,0,0k0496,2015.06.23,7,2,B,C,1,0,No Hint,Unknown,,bl,bl,1.35,23.43333,4006,4,1,FALSE,0,6,0,2,4006.02,,40,3,2,1,TEST,,,4.36,23,50,36,19,20,0.7,0,0k0496,2015.06.23,8,2,D,D,1,0,No Hint,Unknown,1,0,bl,0.5,23.93333,4006,4,1,FALSE,0,6,3,3,4006.04,,40,3,2,1,TEST,,,4.36,23,50,36,19,20,0.7,0,0k0496,2015.06.23,10,4,C,A,1,0,No Hint,Unknown,,bl,bl,1.616667,42.8,4006,4,1,FALSE,0,6,3,5,4006.03,,40,3,2,1,TEST,CBAD,ALL OTHER,4.36,23,50,36,19,20,0.7,0,0k0496,2015.06.23,11,4,B,B,1,0,No Hint,Unknown,,bl,bl,0.75,43.55,4006,4,1,FALSE,0,6,4,4,4006.02,,40,3,2,1,TEST,,,4.36,23,50,36,19,20,0.7,0,0k0496,2015.06.23,12,4,A,C,1,0,No Hint,Unknown,,bl,bl,2.083333,45.63333,4006,4,1,FALSE,0,6,5,3,4006.01,,40,3,2,1,TEST,,,4.36,23,50,36,19,20,0.7,0,0k0496,2015.06.23,13,4,D,D,1,0,No Hint,Unknown,1,0,bl,0.8666667,46.5,4006,4,1,FALSE,0,6,2,2,4006.04,,40,3,2,1,TEST,,,4.36,23,50,36,19,20,0.7,0,0k0496,2015.06.23,27,9,D,A,1,0,No Hint,Unknown,,bl,bl,6.55,106.55,4006,4,1,FALSE,0,6,3,1,4006.04,,40,3,2,1,TEST,DCAB,ALL OTHER,4.36,23,50,36,19,20,0.7,0,0k0496,2015.06.23,28,9,C,B,1,0,No Hint,Unknown,,bl,bl,3.366667,109.9167,4006,4,1,FALSE,0,6,4,0,4006.03,,40,3,2,1,TEST,,,4.36,23,50,36,19,20,0.7,0,0k0496,2015.06.23,29,9,A,C,1,0,No Hint,Unknown,,bl,bl,1.033333,110.95,4006,4,1,FALSE,0,6,1,4,4006.01,,40,3,2,1,TEST,,,4.36,23,50,36,19,20,0.7,0,0k0496,2015.06.23,30,9,B,D,1,0,No Hint,Unknown,1,0,bl,0.9166667,111.8667,4006,4,1,FALSE,0,6,0,3,4006.02,,40,3,2,1,TEST,,,4.36,23,50,36,19,20,0.7,0,0k0496,2015.06.23,31,10,D,A,1,0,No Hint,Unknown,,bl,bl,4.033333,120.8,4006,4,1,FALSE,0,6,2,4,4006.04,,40,3,2,1,TEST,DACB,ALL OTHER,4.36,23,50,36,19,20,0.7,0,0k0496,2015.06.23,32,10,A,B,1,0,No Hint,Unknown,,bl,bl,3.4,124.2,4006,4,1,FALSE,0,6,4,5,4006.01,,40,3,2,1,TEST,,,4.36,23,50,36,19,20,0.7,0,0k0496,2015.06.23,33,10,C,C,1,0,No Hint,Unknown,,bl,bl,2.333333,126.5333,4006,4,1,FALSE,0,6,0,0,4006.03,,40,3,2,1,TEST,,,4.36,23,50,36,19,20,0.7,0,0k0496,2015.06.23,34,10,B,D,1,0,No Hint,Unknown,1,0,bl,0.9666667,127.5,4006,4,1,FALSE,0,6,5,2,4006.02,,40,3,2,1,TEST,,,4.36,23,50,36,19,20,0.7,0,0k0496,2015.06.23,35,11,C,A,1,0,No Hint,Unknown,,bl,bl,1.383333,134.1,4006,4,1,FALSE,0,6,4,3,4006.03,,40,3,2,1,TEST,CABD,Center Embedded,4.36,23,50,36,19,20,0.7,0,0k0496,2015.06.23,36,11,A,B,1,0,No Hint,Unknown,,bl,bl,1.016667,135.1167,4006,4,1,FALSE,0,6,3,2,4006.01,,40,3,2,1,TEST,,,4.36,23,50,36,19,20,0.7,0,0k0496,2015.06.23,37,11,B,C,1,0,No Hint,Unknown,,bl,bl,2.433333,137.55,4006,4,1,FALSE,0,6,2,4,4006.02,,40,3,2,1,TEST,,,4.36,23,50,36,19,20,0.7,0,0k0496,2015.06.23,38,11,D,D,1,0,No Hint,Unknown,1,0,bl,0.65,138.2,4006,4,1,FALSE,0,6,1,1,4006.04,,40,3,2,1,TEST,,,4.36,23,50,36,19,20,0.7,0,0k0496,2015.06.23,39,12,C,A,1,0,No Hint,Unknown,,bl,bl,2.15,144.95,4006,4,1,FALSE,0,6,5,1,4006.03,,40,3,2,1,TEST,CABD,Center Embedded,4.36,23,50,36,19,20,0.7,0,0k0496,2015.06.23,40,12,A,B,1,0,No Hint,Unknown,,bl,bl,1.283333,146.2333,4006,4,1,FALSE,0,6,1,3,4006.01,,40,3,2,1,TEST,,,4.36,23,50,36,19,20,0.7,0,0k0496,2015.06.23,41,12,B,C,1,0,No Hint,Unknown,,bl,bl,1.866667,148.1,4006,4,1,FALSE,0,6,3,5,4006.02,,40,3,2,1,TEST,,,4.36,23,50,36,19,20,0.7,0,0k0496,2015.06.23,42,12,D,D,1,0,No Hint,Unknown,1,0,bl,0.5333333,148.6333,4006,4,1,FALSE,0,6,4,4,4006.04,,40,3,2,1,TEST,,,4.36,23,50,36,19,20,0.7,0,0k0496,2015.06.23,49,15,C,A,1,0,No Hint,Unknown,,bl,bl,3.033333,179.3333,4006,4,1,FALSE,0,6,0,3,4006.03,,40,3,2,1,TEST,CABD,Center Embedded,4.36,23,50,36,19,20,0.7,0,0k0496,2015.06.23,50,15,A,B,1,0,No Hint,Unknown,,bl,bl,5.416667,184.75,4006,4,1,FALSE,0,6,3,5,4006.01,,40,3,2,1,TEST,,,4.36,23,50,36,19,20,0.7,0,0k0496,2015.06.23,51,15,B,C,1,0,No Hint,Unknown,,bl,bl,0.9,185.65,4006,4,1,FALSE,0,6,5,0,4006.02,,40,3,2,1,TEST,,,4.36,23,50,36,19,20,0.7,0,0k0496,2015.06.23,52,15,D,D,1,0,No Hint,Unknown,1,0,bl,1.65,187.3,4006,4,1,FALSE,0,6,1,1,4006.04,,40,3,2,1,TEST,,,4.36,23,50,36,19,20,0.7,0,0k0496,2015.06.23,57,17,A,A,1,0,No Hint,Unknown,,bl,bl,1.533333,205.7333,4006,4,1,FALSE,0,6,2,2,4006.01,,40,3,2,1,TEST,ACBD,Crossed,4.36,23,50,36,19,20,0.7,0,0k0496,2015.06.23,58,17,C,B,1,0,No Hint,Unknown,,bl,bl,2.616667,208.35,4006,4,1,FALSE,0,6,0,4,4006.03,,40,3,2,1,TEST,,,4.36,23,50,36,19,20,0.7,0,0k0496,2015.06.23,59,17,B,C,1,0,No Hint,Unknown,,bl,bl,1.733333,210.0833,4006,4,1,FALSE,0,6,4,0,4006.02,,40,3,2,1,TEST,,,4.36,23,50,36,19,20,0.7,0,0k0496,2015.06.23,60,17,D,D,1,0,No Hint,Unknown,1,0,bl,0.5333333,210.6167,4006,4,1,FALSE,0,6,1,1,4006.04,,40,3,2,1,TEST,,,4.36,23,50,36,19,20,0.7,0,0k0496,2015.06.23,69,20,A,A,1,0,No Hint,Unknown,,bl,bl,1.983333,247.0667,4006,4,1,FALSE,0,6,1,1,4006.01,,40,3,2,1,TEST,ADBC,ALL OTHER,4.36,23,50,36,19,20,0.7,0,0k0496,2015.06.23,70,20,D,B,1,0,No Hint,Unknown,,bl,bl,5.316667,252.3833,4006,4,1,FALSE,0,6,2,4,4006.04,,40,3,2,1,TEST,,,4.36,23,50,36,19,20,0.7,0,0k0496,2015.06.23,71,20,B,C,1,0,No Hint,Unknown,,bl,bl,3.133333,255.5167,4006,4,1,FALSE,0,6,4,0,4006.02,,40,3,2,1,TEST,,,4.36,23,50,36,19,20,0.7,0,0k0496,2015.06.23,72,20,C,D,1,0,No Hint,Unknown,1,0,bl,2.166667,257.6833,4006,4,1,FALSE,0,6,0,2,4006.03,,40,3,2,1,TEST,,,4.36,23,50,36,19,20,0.7,0,0k0496,2015.06.23,73,21,C,A,1,0,No Hint,Unknown,,bl,bl,1.583333,263.2667,4006,4,1,FALSE,0,6,5,0,4006.03,,40,3,2,1,TEST,CADB,Crossed,4.36,23,50,36,19,20,0.7,0,0k0496,2015.06.23,74,21,A,B,1,0,No Hint,Unknown,,bl,bl,2.15,265.4167,4006,4,1,FALSE,0,6,0,2,4006.01,,40,3,2,1,TEST,,,4.36,23,50,36,19,20,0.7,0,0k0496,2015.06.23,75,21,D,C,1,0,No Hint,Unknown,,bl,bl,1.716667,267.1333,4006,4,1,FALSE,0,6,4,5,4006.04,,40,3,2,1,TEST,,,4.36,23,50,36,19,20,0.7,0,0k0496,2015.06.23,76,21,B,D,1,0,No Hint,Unknown,1,0,bl,1.416667,268.55,4006,4,1,FALSE,0,6,2,4,4006.02,,40,3,2,1,TEST,,,4.36,23,50,36,19,20,0.7,0,0k0496,2015.06.23,77,22,C,A,1,0,No Hint,Unknown,,bl,bl,3.833333,276.6,4006,4,1,FALSE,0,6,5,3,4006.03,,40,3,2,1,TEST,CADB,Crossed,4.36,23,50,36,19,20,0.7,0,0k0496,2015.06.23,78,22,A,B,1,0,No Hint,Unknown,,bl,bl,1.383333,277.9833,4006,4,1,FALSE,0,6,3,1,4006.01,,40,3,2,1,TEST,,,4.36,23,50,36,19,20,0.7,0,0k0496,2015.06.23,79,22,D,C,1,0,No Hint,Unknown,,bl,bl,1.6,279.5833,4006,4,1,FALSE,0,6,0,5,4006.04,,40,3,2,1,TEST,,,4.36,23,50,36,19,20,0.7,0,0k0496,2015.06.23,80,22,B,D,1,0,No Hint,Unknown,1,0,bl,1.316667,280.9,4006,4,1,FALSE,0,6,1,0,4006.02,,40,3,2,1,TEST,,,4.36,23,50,36,19,20,0.7,0,0k0496,2015.06.23,81,23,C,A,1,0,No Hint,Unknown,,bl,bl,2.35,302.1667,4006,4,1,FALSE,0,6,1,2,4006.03,,40,3,2,1,TEST,CABD,Center Embedded,4.36,23,50,36,19,20,0.7,0,0k0496,2015.06.23,82,23,A,B,1,0,No Hint,Unknown,,bl,bl,1.133333,303.3,4006,4,1,FALSE,0,6,2,5,4006.01,,40,3,2,1,TEST,,,4.36,23,50,36,19,20,0.7,0,0k0496,2015.06.23,83,23,B,C,1,0,No Hint,Unknown,,bl,bl,2.8,306.1,4006,4,1,FALSE,0,6,5,1,4006.02,,40,3,2,1,TEST,,,4.36,23,50,36,19,20,0.7,0,0k0496,2015.06.23,84,23,D,D,1,0,No Hint,Unknown,1,0,bl,0.8333333,306.9333,4006,4,1,FALSE,0,6,0,0,4006.04,,40,3,2,1,TEST,,,4.36,23,50,36,19,20,0.7,0,0k0496,2015.06.23,93,26,C,A,1,0,No Hint,Unknown,,bl,bl,3.15,333.65,4006,4,1,FALSE,0,6,2,3,4006.03,,40,3,2,1,TEST,CABD,Center Embedded,4.36,23,50,36,19,20,0.7,0,0k0496,2015.06.23,94,26,A,B,1,0,No Hint,Unknown,,bl,bl,2.216667,335.8667,4006,4,1,FALSE,0,6,3,5,4006.01,,40,3,2,1,TEST,,,4.36,23,50,36,19,20,0.7,0,0k0496,2015.06.23,95,26,B,C,1,0,No Hint,Unknown,,bl,bl,0.9,336.7667,4006,4,1,FALSE,0,6,5,2,4006.02,,40,3,2,1,TEST,,,4.36,23,50,36,19,20,0.7,0,0k0496,2015.06.23,96,26,D,D,1,0,No Hint,Unknown,1,0,bl,0.55,337.3167,4006,4,1,FALSE,0,6,1,1,4006.04,,40,3,2,1,TEST,,,4.36,23,50,36,19,20,0.7,0,0k0496,2015.06.23,98,28,C,A,1,0,No Hint,Unknown,,bl,bl,1.783333,353.2167,4006,4,1,FALSE,0,6,4,1,4006.03,,40,3,2,1,TEST,CABD,Center Embedded,4.36,23,50,36,19,20,0.7,0,0k0496,2015.06.23,99,28,A,B,1,0,No Hint,Unknown,,bl,bl,1.316667,354.5333,4006,4,1,FALSE,0,6,1,5,4006.01,,40,3,2,1,TEST,,,4.36,23,50,36,19,20,0.7,0,0k0496,2015.06.23,100,28,B,C,1,0,No Hint,Unknown,,bl,bl,2.25,356.7833,4006,4,1,FALSE,0,6,5,4,4006.02,,40,3,2,1,TEST,,,4.36,23,50,36,19,20,0.7,0,0k0496,2015.06.23,101,28,D,D,1,0,No Hint,Unknown,1,0,bl,0.5666667,357.35,4006,4,1,FALSE,0,6,0,0,4006.04,,40,3,2,1,TEST,,,4.36,23,50,36,19,20,0.7,0,0k0496,2015.06.23,102,29,A,A,1,0,No Hint,Unknown,,bl,bl,1.633333,363.15,4006,4,1,FALSE,0,6,1,1,4006.01,,40,3,2,1,TEST,ACBD,Crossed,4.36,23,50,36,19,20,0.7,0,0k0496,2015.06.23,103,29,C,B,1,0,No Hint,Unknown,,bl,bl,1.75,364.9,4006,4,1,FALSE,0,6,3,4,4006.03,,40,3,2,1,TEST,,,4.36,23,50,36,19,20,0.7,0,0k0496,2015.06.23,104,29,B,C,1,0,No Hint,Unknown,,bl,bl,0.85,365.75,4006,4,1,FALSE,0,6,4,3,4006.02,,40,3,2,1,TEST,,,4.36,23,50,36,19,20,0.7,0,0k0496,2015.06.23,105,29,D,D,1,0,No Hint,Unknown,1,0,bl,0.6166667,366.3667,4006,4,1,FALSE,0,6,2,2,4006.04,,40,3,2,1,TEST,,,4.36,23,50,36,19,20,0.7,0,0k0496,2015.06.23,111,32,C,A,1,0,No Hint,Unknown,,bl,bl,7.15,405.1,4006,4,1,FALSE,0,6,5,4,4006.03,,40,3,2,1,TEST,CABD,Center Embedded,4.36,23,50,36,19,20,0.7,0,0